accelX,accelY,accelZ
0.529541,-0.8591919,0.22991943
0.51293945,-0.6951294,0.18109131
0.64575195,-0.8543091,0.27435303
0.45239258,-0.9373169,0.20941162
0.44604492,-0.79156494,0.25604248
0.50512695,-0.7432251,0.28582764
0.49023438,-0.7276001,0.2741089
0.3959961,-0.7053833,0.28070068
0.21557617,-0.65826416,0.1852417
0.59643555,-0.7149048,0.3612671
0.5517578,-0.92926025,0.2501831
0.69384766,-1.093811,0.14813232
0.7043457,-0.89263916,0.12835693
0.86816406,-1.1841431,0.17523193
0.27124023,-0.677063,0.14935303
0.61987305,-0.8040161,0.15350342
0.52612305,-0.82525635,0.19329834
0.47753906,-0.8530884,0.18914795
0.5690918,-0.84820557,0.1317749
0.57714844,-0.7752075,0.12689209
0.4819336,-0.8291626,0.11590576
0.54052734,-0.83673096,0.12005615
0.51342773,-0.83599854,0.1239624
0.5307617,-0.8233032,0.12371826
0.40795898,-0.86260986,0.21551514
0.37280273,-0.7984009,0.13739014
0.36914062,-0.7546997,0.18084717
0.42407227,-0.7498169,0.13006592
0.17407227,-0.9512329,0.18890381
0.44848633,-0.68951416,0.2929077
0.4506836,-0.6694946,0.21087646
0.7644043,-1.1126099,0.44256592
0.69433594,-0.93829346,0.19573975
0.064697266,-0.86724854,0.009216309
0.8935547,-0.64068604,0.48114014
0.29785156,-0.7007446,0.038269043
0.60302734,-0.95562744,0.29901123
0.52978516,-0.76812744,0.18865967
0.4555664,-0.8262329,0.2789917
0.4543457,-0.66241455,0.23944092
0.44580078,-0.83917236,0.13739014
0.48388672,-0.9002075,0.25408936
0.545166,-0.7737427,0.21868896
0.39160156,-0.9168091,0.19158936
0.32470703,-0.62213135,0.24554443
0.44482422,-0.84869385,0.16204834
0.51464844,-0.7620239,0.36297607
0.34375,-0.79473877,0.18157959
0.37524414,-0.9146118,0.29681396
0.38916016,-0.79766846,0.20281982
0.63305664,-0.77227783,0.24017334
0.6484375,-0.7197876,0.14007568
0.564209,-0.7473755,0.2399292
0.51953125,-0.8826294,0.21356201
0.42041016,-0.77301025,0.2658081
0.5217285,-0.82940674,0.24481201
0.46606445,-0.69903564,0.32025146
0.5241699,-0.68829346,0.34906006
0.52856445,-0.99298096,0.25164795
0.21704102,-0.75665283,0.32000732
0.3544922,-0.6543579,0.27288818
0.45092773,-0.7842407,0.3048706
0.27905273,-0.7581177,0.28778076
0.9140625,-1.2664185,0.15350342
0.61572266,-1.227356,0.023376465
0.41381836,-0.79644775,0.33709717
0.37548828,-0.8389282,0.062927246
0.5427246,-0.72076416,0.22088623
0.32128906,-1.0442505,0.04949951
0.5510254,-0.7625122,0.17596436
0.42016602,-0.8633423,0.15667725
0.45654297,-0.91851807,0.21038818
0.45410156,-0.83380127,0.12860107
0.42919922,-0.8267212,0.16546631
0.4428711,-0.8557739,0.17279053
0.3828125,-0.8201294,0.16864014
0.31933594,-0.7366333,0.19110107
0.3544922,-0.84625244,0.23968506
0.35913086,-0.79229736,0.2741089
0.30273438,-0.85943604,0.21087646
0.49853516,-0.90460205,0.20721436
0.7871094,-0.9590454,0.40545654
0.67456055,-1.0588989,0.37005615
0.5744629,-0.9492798,0.13275146
0.25878906,-0.8040161,0.30633545
0.62060547,-0.7385864,0.21185303
0.5595703,-0.8274536,0.25726318
0.31884766,-0.9949341,0.25726318
0.70092773,-0.7476196,0.277771
0.39624023,-0.8093872,0.2584839
0.45483398,-0.8621216,0.2555542
0.42919922,-0.7058716,0.23699951
0.47094727,-0.8694458,0.324646
0.42285156,-0.8167114,0.24993896
0.4423828,-0.71710205,0.28582764
0.27685547,-0.7095337,0.21990967
0.4946289,-0.76446533,0.24676514
0.3815918,-0.8513794,0.34661865
0.38916016,-0.72979736,0.22064209
0.91186523,-0.9470825,0.13812256
0.6850586,-0.9529419,0.35736084
0.40893555,-1.7029419,0.117370605
0.46557617,-0.44586182,0.34710693
0.4169922,-1.0237427,0.14666748
0.4387207,-0.76446533,0.25115967
0.40527344,-0.95269775,0.33294678
0.48046875,-0.73931885,0.25701904
0.44848633,-0.85406494,0.2531128
0.40722656,-0.9216919,0.24310303
0.45825195,-0.8999634,0.2897339
0.4609375,-0.81866455,0.26385498
0.41333008,-0.8477173,0.21722412
0.3671875,-0.8713989,0.30194092
0.39257812,-0.9043579,0.19793701
0.33862305,-0.7905884,0.21673584
0.33789062,-0.65460205,0.18939209
0.21801758,-0.6148071,0.20159912
0.21606445,-0.76641846,0.22088623
0.5354004,-0.82403564,0.31658936
0.9284668,-1.2039185,0.26385498
1.0888672,-1.3233032,0.418396
0.40649414,-0.8296509,0.009216309
0.5427246,-0.7576294,0.31781006
0.5942383,-0.81207275,0.11932373
0.45092773,-0.7803345,0.29266357
0.5751953,-0.8140259,0.21551514
0.4909668,-0.7427368,0.26849365
0.5449219,-0.8389282,0.23919678
0.49682617,-0.80352783,0.3222046
0.49682617,-0.7666626,0.30145264
0.49926758,-0.81036377,0.31195068
0.45654297,-0.8279419,0.25238037
0.48706055,-0.72320557,0.3065796
0.46191406,-0.77349854,0.24822998
0.44262695,-0.71343994,0.25726318
0.26464844,-0.6873169,0.2772827
0.46704102,-0.7144165,0.32806396
0.42163086,-0.8713989,0.27996826
0.3881836,-0.83721924,0.2255249
0.40161133,-0.88775635,0.30340576
0.34277344,-0.8648071,0.28045654
0.39233398,-0.8635864,0.2687378
0.3828125,-0.86431885,0.26409912
0.2770996,-0.7752075,0.2597046
0.29077148,-0.74664307,0.23480225
0.32592773,-0.7686157,0.24334717
0.38427734,-0.8196411,0.26678467
0.20263672,-0.8850708,0.41400146
0.29882812,-0.6868286,0.10467529
0.9394531,-1.0918579,0.53582764
0.65185547,-1.4099731,0.11175537
0.5031738,-0.80474854,0.105651855
0.7451172,-0.81427,0.4100952
0.22241211,-0.9414673,-0.024963379
0.7180176,-0.74884033,0.41229248
0.35302734,-0.8110962,0.10662842
0.6008301,-0.7720337,0.35125732
0.532959,-0.7913208,0.19085693
0.44189453,-0.8374634,0.28045654
0.5241699,-0.7764282,0.29241943
0.4296875,-0.8513794,0.30389404
0.40039062,-0.77545166,0.3295288
0.47875977,-0.66607666,0.33709717
0.36108398,-0.7788696,0.25335693
0.37280273,-0.6362915,0.23968506
0.44506836,-0.7366333,0.35882568
0.37353516,-0.7383423,0.3390503
0.28833008,-0.98809814,0.26678467
0.861084,-0.861145,0.38885498
0.25683594,-1.18927,0.15081787
0.6098633,-0.7817993,0.2506714
0.35717773,-0.8262329,0.2140503
0.4506836,-0.84576416,0.20892334
0.51586914,-0.89508057,0.215271
0.4519043,-0.850647,0.19915771
0.43408203,-0.7798462,0.18060303
0.4897461,-0.94903564,0.2387085
0.3779297,-0.8323364,0.14105225
0.44702148,-0.88482666,0.21624756
0.41992188,-0.7649536,0.17938232
0.3317871,-0.753479,0.22161865
0.39111328,-0.770813,0.26678467
0.24291992,-0.69366455,0.20648193
0.17797852,-0.71759033,0.31414795
0.36328125,-0.83551025,0.15081787
0.95458984,-1.1411743,0.58880615
0.7775879,-1.229065,0.41888428
0.3095703,-0.7293091,0.090026855
0.576416,-0.5899048,0.36566162
0.59033203,-0.87384033,0.06439209
0.5620117,-0.7124634,0.31976318
0.5578613,-0.85162354,0.23529053
0.5473633,-0.8106079,0.2592163
0.5109863,-0.7991333,0.21453857
0.5383301,-0.77911377,0.2694702
0.4609375,-0.79571533,0.2477417
0.4494629,-0.8101196,0.30926514
0.29125977,-0.6902466,0.29803467
0.54833984,-0.55670166,0.12982178
0.4140625,-0.7354126,0.25238037
0.2788086,-0.677063,0.44354248
0.45703125,-0.8040161,-0.1921997
0.875,-1.3198853,0.3131714
0.38183594,-0.9968872,0.1954956
0.63305664,-0.7000122,0.07342529
0.23950195,-0.78570557,0.11029053
0.626709,-0.8257446,0.12200928
0.50439453,-0.9932251,0.1696167
0.45410156,-0.7180786,0.18572998
0.5422363,-0.90289307,0.1930542
0.50390625,-0.81207275,0.19696045
0.4560547,-0.84454346,0.19232178
0.43969727,-0.8286743,0.19012451
0.47070312,-0.8401489,0.21014404
0.30908203,-0.6975708,0.13909912
0.18603516,-0.6878052,0.20550537
0.46826172,-0.8296509,0.35028076
0.14697266,-0.63604736,0.3114624
1.145752,-1.50177,0.27069092
0.6491699,-0.9788208,0.17669678
0.36987305,-0.84381104,0.2802124
0.40625,-0.60235596,0.101745605
0.5341797,-0.81451416,0.29534912
0.53759766,-0.7503052,0.21282959
0.45703125,-0.85284424,0.2333374
0.5541992,-0.78497314,0.22454834
0.4790039,-0.86553955,0.24334717
0.46679688,-0.7962036,0.2489624
0.48583984,-0.784729,0.28875732
0.47387695,-0.8152466,0.28631592
0.38867188,-0.723938,0.27923584
0.49487305,-0.71539307,0.2819214
0.34716797,-0.63482666,0.24407959
0.39135742,-0.8296509,0.3781128
0.2915039,-0.66534424,0.31903076
0.3774414,-0.897522,0.1449585
0.4807129,-0.86187744,0.24139404
0.5085449,-0.9961548,0.29119873
0.39404297,-0.7383423,0.23651123
0.48364258,-0.91290283,0.22235107
0.40795898,-0.83551025,0.19598389
0.4116211,-0.8670044,0.21990967
0.42382812,-0.7683716,0.16986084
0.29760742,-0.7312622,0.1774292
0.2680664,-0.71539307,0.14227295
0.30932617,-0.8867798,0.33538818
0.1616211,-0.88067627,0.29193115
0.876709,-1.0757446,0.19036865
0.6196289,-1.1150513,0.2008667
0.6665039,-0.78790283,0.38861084
0.27905273,-0.87579346,-0.04522705
0.56884766,-0.75787354,0.33636475
0.5866699,-0.7214966,0.23040771
0.46777344,-0.86383057,0.1708374
0.46923828,-0.7654419,0.25408936
0.47045898,-0.8381958,0.30169678
0.48828125,-0.7854614,0.29901123
0.42773438,-0.8062134,0.29901123
0.45263672,-0.6890259,0.29193115
0.08642578,-0.45343018,0.34197998
0.41357422,-0.7896118,0.230896
0.33911133,-0.7605591,0.2267456
0.43969727,-0.833313,0.12030029
0.4543457,-0.8401489,0.14471436
0.5095215,-0.95147705,0.094177246
0.54541016,-0.9011841,0.18035889
0.3149414,-0.8452759,0.14031982
0.44970703,-0.87945557,0.16204834
0.44604492,-0.86309814,0.14910889
0.4506836,-0.835022,0.20574951
0.32983398,-0.7432251,0.101989746
0.28955078,-0.64141846,0.21087646
0.24536133,-0.7642212,0.25604248
0.32885742,-0.80303955,0.2597046
0.390625,-0.7588501,0.18011475
0.8786621,-1.1809692,0.51361084
1.0107422,-1.2061157,0.3678589
0.19824219,-0.8833618,0.13275146
0.39233398,-0.5166626,0.4171753
0.6838379,-0.8748169,0.015075684
0.5378418,-0.8128052,0.46844482
0.47509766,-0.83013916,0.14422607
0.54003906,-0.8184204,0.30511475
0.5070801,-0.7893677,0.22454834
0.54956055,-0.8267212,0.25653076
0.5385742,-0.75665283,0.29241943
0.46191406,-0.7984009,0.23919678
0.4555664,-0.6514282,0.29071045
0.42333984,-0.7608032,0.2531128
0.33496094,-0.6748657,0.15081787
0.46679688,-0.7317505,0.24700928
0.4802246,-0.82159424,0.20941162
0.46118164,-0.8364868,0.1864624
0.52124023,-0.8521118,0.2074585
0.54589844,-0.80670166,0.21868896
0.40722656,-0.82696533,0.2255249
0.42211914,-0.82159424,0.22650146
0.30639648,-0.6758423,0.27801514
0.2631836,-0.6392212,0.14520264
0.5773926,-0.65411377,0.39227295
0.31933594,-0.7334595,0.15179443
1.2097168,-1.2141724,0.5038452
1.0268555,-1.5474243,0.37200928
0.49316406,-0.7407837,0.07098389
0.36547852,-0.6309204,0.36712646
0.6459961,-0.8010864,0.07537842
0.5788574,-0.68414307,0.26287842
0.5151367,-0.8862915,0.17523193
0.5698242,-0.77227783,0.25286865
0.5144043,-0.80352783,0.22772217
0.5041504,-0.8179321,0.28363037
0.51220703,-0.7786255,0.2645874
0.4963379,-0.83477783,0.3078003
0.48120117,-0.7312622,0.29071045
0.4465332,-0.75372314,0.32122803
0.45336914,-0.77178955,0.26507568
0.38745117,-0.753479,0.3012085
0.25854492,-0.54571533,0.3258667
0.50341797,-0.76104736,0.34588623
0.25219727,-0.84039307,0.2423706
1.0524902,-1.3462524,0.39105225
0.47753906,-1.2319946,0.14910889
0.42919922,-0.6001587,0.34246826
0.35131836,-0.7971802,0.13983154
0.5253906,-0.817688,0.33319092
0.37280273,-0.94659424,0.12860107
0.54467773,-0.8220825,0.1876831
0.4584961,-0.8652954,0.18670654
0.47265625,-0.880188,0.20892334
0.4230957,-0.86016846,0.16693115
0.4543457,-0.8369751,0.20574951
0.46655273,-0.81622314,0.184021
0.32666016,-0.7859497,0.13494873
0.21826172,-0.5935669,0.1251831
0.2421875,-0.79766846,0.21331787
0.29418945,-0.7119751,0.34417725
0.42700195,-0.8052368,-0.06109619
1.2358398,-1.097229,0.78948975
0.42041016,-1.1802368,0.26312256
0.2512207,-0.70928955,0.085876465
0.59521484,-0.72247314,0.4772339
0.48339844,-0.8340454,0.13543701
0.49853516,-0.8206177,0.35491943
0.44628906,-0.8189087,0.26141357
0.4729004,-0.7786255,0.31195068
0.43017578,-0.8308716,0.3131714
0.4025879,-0.8206177,0.31878662
0.34985352,-0.6358032,0.37445068
0.31201172,-0.64263916,0.27581787
0.42260742,-0.75909424,0.28070068
0.5202637,-0.6851196,0.33685303
0.33203125,-0.92852783,-0.02154541
0.91259766,-1.107727,0.63153076
0.4099121,-1.5618286,0.038024902
0.6022949,-0.53570557,0.26556396
0.26098633,-1.0425415,0.073913574
0.56152344,-0.6345825,0.25726318
0.37036133,-1.0344849,0.19525146
0.4567871,-0.80352783,0.25286865
0.44458008,-0.8765259,0.17376709
0.36645508,-0.8569946,0.25701904
0.40673828,-0.8657837,0.2374878
0.5012207,-0.83795166,0.3126831
0.32739258,-0.89678955,0.25775146
0.35009766,-0.7559204,0.27093506
0.34838867,-0.74298096,0.2675171
0.2524414,-0.6416626,0.24749756
0.30419922,-0.9026489,0.2723999
0.13354492,-0.60357666,0.3517456
1.0964355,-1.180481,0.32391357
0.97558594,-1.4819946,0.48651123
0.13647461,-0.8501587,0.26531982
0.5126953,-0.46710205,0.3842163
0.45458984,-0.8897095,0.16571045
0.60839844,-0.7295532,0.354187
0.42211914,-0.89556885,0.21478271
0.453125,-0.83428955,0.30218506
0.5410156,-0.7005005,0.291687
0.40527344,-0.82476807,0.2682495
0.40795898,-0.802063,0.30169678
0.37524414,-0.66363525,0.28875732
