accelX,accelY,accelZ
-0.3774414,-1.1201782,0.2616577
0.43823242,-0.9307251,0.5753784
-0.12792969,-0.5857544,0.30389404
0.16040039,-0.68927,0.2772827
0.095703125,-0.67193604,0.3222046
0.076171875,-0.6499634,0.3612671
0.032470703,-0.65045166,0.369812
0.068603516,-1.2739868,0.29925537
0.017089844,-1.2944946,0.62786865
-0.30737305,-1.1060181,0.39959717
-0.0041503906,-0.83795166,0.26312256
-0.05102539,-0.7402954,0.27069092
0.014892578,-0.5679321,0.21942139
-0.19628906,-0.59210205,0.29608154
0.10620117,-1.1975708,0.21258545
0.63183594,-1.6890259,0.62298584
-0.33911133,-1.00177,0.3847046
0.40966797,-0.88116455,0.52020264
-0.12939453,-0.6773071,0.38397217
0.10668945,-0.51568604,0.33831787
0.15771484,-0.52471924,0.22698975
-0.11425781,-1.000061,0.18621826
0.36694336,-2.0,0.20550537
-0.24951172,-1.1265259,0.74627686
0.056884766,-0.9883423,0.18890381
-0.2705078,-0.6355591,0.16595459
0.11743164,-0.67681885,0.21502686
-0.25585938,-0.59088135,0.27581787
0.19140625,-1.2258911,0.030456543
0.8461914,-1.5667114,0.87298584
-0.34570312,-0.98028564,0.32025146
0.5437012,-0.95977783,0.6581421
-0.07885742,-0.5484009,0.1749878
0.171875,-0.64434814,0.43328857
0.09472656,-0.6279907,0.32904053
0.087890625,-0.6565552,0.37054443
-0.31079102,-1.0696411,0.1671753
0.49682617,-1.7617798,-0.10015869
-0.1171875,-0.94366455,0.6437378
-0.040039062,-0.98394775,0.21575928
-0.072265625,-0.78131104,0.31756592
0.0034179688,-0.5960083,0.25360107
-0.21582031,-0.6057739,0.27825928
0.025146484,-1.1680298,0.12200928
0.8312988,-1.7700806,0.49456787
-0.50097656,-1.0547485,0.291687
0.63134766,-0.9121704,0.5648804
-0.25146484,-0.53253174,0.22406006
0.1772461,-0.548645,0.36029053
0.1586914,-0.42095947,0.18011475
0.015136719,-1.2664185,0.22406006
0.20825195,-1.5130005,0.4562378
-0.18457031,-1.0737915,0.43695068
-0.0949707,-0.87677,0.2531128
0.06323242,-0.68292236,0.25482178
-0.03857422,-0.55426025,0.21795654
-0.15234375,-0.62994385,0.3209839
0.1394043,-1.1001587,0.21331787
0.58032227,-1.8757935,0.43548584
-0.31176758,-1.0901489,0.37322998
0.42797852,-0.9404907,0.6774292
-0.16455078,-0.57769775,0.21234131
0.17700195,-0.6199341,0.39520264
0.0925293,-0.5112915,0.20965576
-0.20947266,-0.9976196,0.34661865
0.42236328,-2.0,0.057800293
-0.16308594,-1.0967407,0.7057495
-0.075927734,-0.98809814,0.18499756
-0.03955078,-0.67437744,0.2518921
-0.0043945312,-0.55059814,0.16790771
-0.24682617,-0.59552,0.28704834
0.04248047,-1.3269653,0.06390381
0.5703125,-1.8406372,0.47332764
-0.31079102,-1.1497192,0.31488037
0.41723633,-0.89971924,0.51605225
-0.10913086,-0.5755005,0.2033081
0.19750977,-0.60943604,0.37738037
0.16918945,-0.5630493,0.18475342
-0.15307617,-1.0671997,0.24017334
0.27319336,-2.0,0.3595581
-0.064453125,-1.1174927,0.7411499
-0.12182617,-0.92266846,0.26239014
-0.106933594,-0.65631104,0.28094482
0.041748047,-0.5352173,0.15325928
-0.18164062,-0.5708618,0.28533936
0.20166016,-1.2144165,0.120788574
0.42944336,-2.0,0.5570679
-0.33520508,-1.0664673,0.43084717
0.27807617,-0.90802,0.5565796
-0.0126953125,-0.57232666,0.20941162
0.03955078,-0.38555908,0.27874756
0.22973633,-0.5105591,0.1774292
0.08105469,-1.5610962,0.11248779
-0.16137695,-1.427063,0.60028076
0.03881836,-1.0925903,0.32684326
-0.19262695,-0.78302,0.24261475
0.06713867,-0.60723877,0.23040771
-0.075927734,-0.45318604,0.1942749
-0.17822266,-0.75372314,0.39398193
0.5432129,-1.4255981,0.35272217
0.1772461,-1.3352661,0.73651123
0.080566406,-0.89263916,0.41082764
0.053466797,-0.5877075,0.3632202
0.1887207,-0.5237427,0.32635498
0.15942383,-0.61553955,0.22918701
-0.016113281,-0.74420166,0.38861084
0.3388672,-2.0,0.27386475
-0.24853516,-1.2595825,0.6190796
-0.095947266,-1.0418091,0.21380615
-0.1652832,-0.72125244,0.260437
0.11206055,-0.5784302,0.097351074
-0.30981445,-0.6182251,0.27142334
0.107177734,-1.071106,0.2489624
0.50561523,-1.8167114,0.43133545
-0.2998047,-1.1995239,0.36419678
0.25610352,-0.9824829,0.5765991
-0.028808594,-0.6658325,0.24505615
0.08862305,-0.597229,0.24212646
0.13549805,-0.5315552,0.276062
0.16357422,-0.6712036,0.38616943
0.23876953,-1.5015259,0.10736084
-0.31323242,-1.2927856,0.61395264
0.060302734,-1.0442505,0.33416748
-0.15136719,-0.7246704,0.2662964
0.030273438,-0.678772,0.17840576
-0.06738281,-0.6397095,0.23797607
-0.2055664,-0.5574341,0.28460693
0.2927246,-1.3179321,0.3776245
0.47827148,-1.4724731,0.85931396
-0.029785156,-1.0137329,0.45916748
0.2487793,-0.8032837,0.41864014
0.041992188,-0.5610962,0.21722412
0.049072266,-0.63775635,0.31756592
0.22680664,-0.7058716,0.3529663
-0.07055664,-0.6289673,0.35028076
0.15209961,-2.0,0.47088623
-0.09399414,-1.2822876,0.77386475
-0.09277344,-0.96539307,0.3283081
-0.1730957,-0.7337036,0.3053589
0.01171875,-0.7168579,0.19158936
-0.08496094,-0.65167236,0.29632568
-0.15844727,-0.60113525,0.4862671
0.028076172,-1.0903931,0.3324585
0.55444336,-1.4031372,0.70184326
-0.11425781,-1.1616821,0.44573975
0.24511719,-0.95635986,0.58221436
-0.037109375,-0.597229,0.24920654
0.051513672,-0.58599854,0.26019287
0.109375,-0.6968384,0.40570068
0.053466797,-0.72003174,0.34539795
-0.03100586,-1.2549438,0.29608154
0.31054688,-1.413147,0.2946167
-0.100097656,-1.0081177,0.5272827
-0.057128906,-0.8521118,0.23822021
-0.028320312,-0.71954346,0.2999878
0.028076172,-0.6746216,0.25115967
-0.2939453,-0.6487427,0.35858154
0.023925781,-0.9812622,0.21478271
0.4572754,-1.6411743,0.6461792
-0.28076172,-1.2144165,0.4364624
0.3425293,-1.0505981,0.61639404
-0.13696289,-0.64312744,0.34344482
0.22705078,-0.6411743,0.33416748
0.07373047,-0.5420532,0.2514038
0.03881836,-0.62750244,0.44354248
0.111328125,-1.1633911,0.39666748
0.06518555,-1.3198853,0.3661499
0.00390625,-0.9216919,0.64056396
-0.12231445,-0.88897705,0.19573975
-0.02709961,-0.7647095,0.34246826
-0.032226562,-0.569397,0.2789917
-0.09277344,-0.6399536,0.26385498
0.17504883,-1.1326294,0.10784912
0.68310547,-1.5877075,0.7802124
-0.3762207,-1.1599731,0.3637085
0.3425293,-0.86602783,0.602478
-0.20751953,-0.519104,0.17572021
0.19311523,-0.6560669,0.3637085
0.15454102,-0.7402954,0.38226318
-0.035888672,-0.708313,0.36761475
0.20385742,-1.3919067,0.25653076
-0.14038086,-1.3862915,0.30389404
0.048339844,-0.83843994,0.45965576
-0.10571289,-0.645813,0.18621826
0.04248047,-0.73809814,0.15838623
-0.23217773,-0.66534424,0.3842163
-0.031982422,-1.0908813,0.34906006
0.6906738,-1.7349243,0.55926514
-0.40820312,-1.1675415,0.33514404
0.36206055,-0.9158325,0.572937
-0.16992188,-0.60479736,0.2453003
0.17602539,-0.5803833,0.27947998
0.08911133,-0.6921997,0.24945068
0.03540039,-0.73394775,0.44744873
0.20166016,-1.2505493,0.1720581
-0.06298828,-1.4800415,0.41619873
0.13867188,-1.1694946,0.52801514
-0.23657227,-0.80963135,0.24822998
-0.0126953125,-0.66900635,0.25653076
0.06347656,-0.61676025,0.17572021
-0.31567383,-0.6194458,0.37542725
-0.030517578,-0.8377075,0.41326904
0.38256836,-1.5359497,0.60076904
-0.2614746,-1.3018188,0.55755615
0.32421875,-1.0149536,0.56463623
-0.051513672,-0.6782837,0.27825928
0.11669922,-0.58258057,0.3151245
0.009277344,-0.5137329,0.3007202
0.21972656,-0.6616821,0.31048584
0.018798828,-1.4885864,0.27264404
-0.13476562,-1.4224243,0.55999756
0.033447266,-1.0903931,0.44573975
-0.08154297,-0.7451782,0.26068115
-0.043701172,-0.68707275,0.25335693
0.025146484,-0.5474243,0.1437378
-0.3071289,-0.5606079,0.36395264
0.17529297,-1.1355591,0.5236206
0.30322266,-1.5774536,0.85443115
-0.14697266,-1.1235962,0.3258667
0.21728516,-0.802063,0.60614014
-0.07788086,-0.5342407,0.28485107
0.057373047,-0.56036377,0.3883667
0.23046875,-0.68463135,0.3685913
-0.2722168,-0.5171509,0.4887085
0.19360352,-2.0,0.32611084
-0.06518555,-1.4697876,0.7826538
-0.04663086,-0.8555298,0.25775146
-0.03125,-0.4981079,0.25360107
-0.100097656,-0.6148071,0.25823975
-0.19335938,-1.1338501,0.42962646
0.22558594,-1.4783325,0.5848999
0.08203125,-1.1289673,0.5270386
0.18603516,-0.82159424,0.34906006
0.08520508,-0.6543579,0.2921753
0.043945312,-0.62286377,0.34857178
0.10522461,-0.64849854,0.37176514
0.09643555,-0.6055298,0.36761475
0.07348633,-1.2522583,0.2477417
-0.056396484,-1.343811,0.5194702
0.11035156,-1.0586548,0.43914795
-0.0715332,-0.7415161,0.28900146
-0.037841797,-0.72491455,0.27459717
0.057617188,-0.57232666,0.24212646
-0.26098633,-0.7288208,0.2111206
0.08300781,-1.107727,0.21722412
0.5900879,-1.7908325,0.48480225
-0.32666016,-1.1155396,0.2538452
0.33129883,-0.9338989,0.5499878
-0.099121094,-0.57696533,0.29388428
0.07421875,-0.59381104,0.34832764
0.057128906,-0.52301025,0.21331787
-0.084228516,-1.2000122,0.20721436
0.43774414,-1.8491821,0.3222046
-0.28564453,-1.1384888,0.6432495
0.071777344,-0.9902954,0.23309326
-0.12060547,-0.6968384,0.30975342
0.064208984,-0.647522,0.1227417
-0.1730957,-0.6868286,0.35443115
-0.06567383,-0.6367798,0.37078857
0.32617188,-1.3267212,0.45770264
0.45532227,-1.4172974,0.8932495
-0.035888672,-0.9619751,0.4850464
0.20019531,-0.6890259,0.41986084
0.026123047,-0.4883423,0.25872803
0.014404297,-0.49102783,0.26727295
0.42333984,-0.56451416,0.47235107
0.080322266,-2.0,0.25091553
-0.30444336,-1.2439575,0.58099365
0.18457031,-1.046936,0.3012085
-0.18847656,-0.70318604,0.25115967
0.045898438,-0.6843872,0.14349365
-0.08544922,-0.54156494,0.2531128
-0.04272461,-0.5462036,0.36932373
0.49731445,-1.2991333,0.68621826
-0.06591797,-1.3486938,0.5944214
0.2788086,-0.9920044,0.51556396
-0.14086914,-0.7024536,0.33270264
0.38916016,-0.6502075,0.25872803
-0.078125,-0.4824829,0.2008667
0.4482422,-0.67510986,0.27703857
-0.22167969,-1.317688,0.26678467
0.24414062,-1.4402466,0.44281006
-0.14550781,-0.954895,0.48529053
0.010009766,-0.6934204,0.1696167
-0.029296875,-0.7163696,0.2399292
-0.006591797,-0.5088501,0.2489624
-0.25732422,-0.5298462,0.26605225
0.4567871,-1.3091431,0.5297241
0.20361328,-1.4678345,0.7731323
0.16796875,-1.0217896,0.57928467
0.09277344,-0.708313,0.36883545
0.21972656,-0.53131104,0.32440186
-0.02709961,-0.39508057,0.14935303
0.24829102,-0.4866333,0.4286499
0.328125,-2.0,0.31048584
-0.5004883,-1.3013306,0.5619507
0.27124023,-1.1604614,0.29974365
-0.20703125,-0.7288208,0.22894287
0.064941406,-0.6765747,0.21429443
-0.18164062,-0.62384033,0.22894287
-0.0390625,-0.64971924,0.34588623
0.18408203,-0.9968872,0.109558105
0.62231445,-1.5420532,0.68548584
-0.2944336,-1.1484985,0.33514404
0.39111328,-0.8796997,0.63397217
-0.19018555,-0.50250244,0.15594482
0.12207031,-0.58551025,0.3583374
0.25048828,-0.6165161,0.29901123
-0.21264648,-0.7258911,0.3805542
0.21459961,-2.0,0.262146
-0.33691406,-1.196106,0.91864014
0.03466797,-1.0872192,0.1918335
-0.23461914,-0.6897583,0.37054443
0.041259766,-0.6572876,0.09246826
-0.22167969,-0.5371704,0.27264404
-0.0859375,-0.5942993,0.29266357
0.5410156,-1.8340454,0.49066162
-0.3330078,-1.3858032,0.51605225
0.48413086,-1.0779419,0.63861084
-0.22241211,-0.65802,0.27288818
0.31640625,-0.66534424,0.26898193
-0.022705078,-0.5293579,0.31878662
0.30932617,-0.7046509,0.39422607
-0.28222656,-1.1934204,0.14764404
0.1262207,-1.47052,0.42401123
0.028320312,-1.1707153,0.48162842
-0.18041992,-0.8652954,0.25091553
0.05444336,-0.7036743,0.28631592
0.03491211,-0.59942627,0.12786865
-0.30029297,-0.6878052,0.3480835
-0.046142578,-0.753479,0.36151123
0.42651367,-1.5881958,0.4015503
-0.22583008,-1.3279419,0.59539795
0.26708984,-1.0374146,0.5516968
-0.033691406,-0.72442627,0.3295288
0.17211914,-0.63165283,0.30926514
0.071777344,-0.6133423,0.33880615
0.044189453,-0.505188,0.20135498
0.110839844,-1.2756958,0.11663818
0.13232422,-1.5205688,0.53900146
0.08251953,-1.1785278,0.5170288
-0.20581055,-0.8323364,0.27508545
0.034423828,-0.65216064,0.23895264
0.020263672,-0.5640259,0.21502686
-0.29516602,-0.67437744,0.34075928
0.11254883,-1.1382446,0.22283936
0.5625,-1.8001099,0.58148193
-0.35766602,-1.211731,0.3571167
0.29638672,-0.85479736,0.51727295
-0.15795898,-0.57598877,0.2670288
0.22021484,-0.6296997,0.3673706
0.04296875,-0.56915283,0.21160889
0.15625,-0.6189575,0.43597412
0.25878906,-1.4609985,0.4142456
-0.2783203,-1.2874146,0.5585327
0.047851562,-1.0462036,0.4039917
-0.1484375,-0.6992798,0.24578857
0.041259766,-0.6682739,0.22259521
-0.0087890625,-0.5281372,0.24505615
-0.27563477,-0.6651001,0.3619995
0.34326172,-1.296936,0.48480225
0.10986328,-1.4234009,0.6923218
0.2397461,-1.0357056,0.53118896
0.036865234,-0.76812744,0.32269287
0.24365234,-0.6338501,0.31585693
-0.021240234,-0.61138916,0.34344482
0.14428711,-0.5335083,0.23138428
-0.12109375,-1.1370239,0.1461792
0.3317871,-2.0,0.40985107
-0.17236328,-1.1538696,0.64178467
-0.08642578,-0.9758911,0.25335693
-0.08544922,-0.6589966,0.30218506
0.03149414,-0.5811157,0.12542725
-0.24121094,-0.675354,0.30511475
-0.09863281,-0.6758423,0.38739014
0.4099121,-1.6585083,0.45770264
-0.13256836,-1.2637329,0.56781006
0.265625,-0.9944458,0.4598999
-0.075683594,-0.75445557,0.33441162
0.20654297,-0.628479,0.36688232
