accelX,accelY,accelZ
-0.09033203,-0.6411743,0.10247803
0.26635742,-1.2456665,0.33709717
-0.17138672,-1.0725708,0.026062012
0.14892578,-1.2732544,0.11199951
-0.25439453,-1.2688599,0.19818115
0.001708984,-1.0181274,0.1786499
0.060302734,-0.5820923,0.049987793
-0.22875977,-0.97784424,0.2008667
-0.32592773,-0.6260376,0.1359253
0.020263672,-0.97003174,0.24188232
-0.12817383,-0.9468384,0.307312
0.09838867,-0.8464966,0.1005249
0.43286133,-1.7268677,0.5582886
-0.29223633,-1.0654907,0.31707764
-0.008056641,-0.5991821,0.18914795
0.2734375,-0.90289307,0.3151245
-0.27514648,-0.7769165,0.21844482
0.005615234,-0.7192993,0.15692139
0.15185547,-1.12677,0.5067749
-0.3173828,-1.2249146,0.066345215
0.041259766,-1.5181274,0.3756714
-0.23828125,-1.0073853,0.15325928
-0.006835938,-0.8933716,0.1083374
-0.13452148,-0.75201416,0.007751465
-0.1274414,-0.583313,-0.011535645
-0.15283203,-0.8616333,0.0692749
0.04296875,-1.33844,0.3583374
-0.20019531,-0.79473877,0.018737793
0.29052734,-1.4067993,0.56365967
0.21850586,-1.4434204,0.51434326
-0.24731445,-0.97125244,0.16693115
0.051513672,-0.7095337,0.10736084
0.12524414,-0.8909302,0.25482178
0.05102539,-0.72076416,0.23406982
0.13500977,-0.76031494,0.11395264
-0.006591797,-1.1572876,0.32025146
-0.037597656,-1.031311,0.2850952
0.05834961,-1.0940552,0.0602417
0.15136719,-1.1902466,0.18572998
-0.22436523,-1.203186,0.3270874
-0.13208008,-0.94659424,0.06463623
0.15576172,-1.0083618,0.3427124
-0.24926758,-0.72906494,0.10296631
-0.27246094,-0.6399536,-0.018615723
0.14331055,-0.89312744,0.2411499
-0.111816406,-0.94537354,0.21356201
0.3076172,-0.9561157,0.28411865
-0.068115234,-1.4043579,0.5363159
0.064453125,-1.0042114,0.24871826
0.002929688,-0.7649536,0.19525146
-0.084228516,-0.50860596,-0.06109619
0.26293945,-1.0449829,0.37298584
0.35180664,-1.1887817,0.029724121
-0.09692383,-1.3318481,0.31072998
-0.24902344,-0.8213501,0.1383667
0.13647461,-1.2156372,0.24700928
-0.07006836,-0.67193604,0.15350342
-0.34570312,-0.894104,0.08831787
0.02368164,-0.6543579,0.010192871
0.006591797,-1.2918091,0.32611084
0.3161621,-0.8267212,-0.07305908
0.21923828,-1.609436,0.4887085
-0.28759766,-1.0374146,0.124694824
0.22070312,-1.0715942,0.2477417
-0.095458984,-0.47369385,0.085876465
0.021728516,-0.61505127,0.15301514
0.23779297,-0.99542236,0.19378662
-0.03515625,-1.1148071,0.43572998
-0.23876953,-1.1016235,0.001403809
0.45410156,-1.678772,0.4508667
-0.4855957,-0.9734497,0.40740967
0.0,-0.6445923,-0.047180176
0.09008789,-1.0320435,0.25091553
-0.23364258,-0.6724243,0.07562256
0.19580078,-0.83062744,0.2736206
0.0690918,-0.70758057,0.24285889
-0.09008789,-0.6170044,0.17449951
0.12573242,-1.2324829,0.22821045
-0.039794922,-0.831604,0.043640137
0.091796875,-1.4673462,0.17279053
-0.3581543,-1.373352,0.17596436
-0.10595703,-0.8977661,0.12347412
0.122802734,-0.76153564,0.058288574
-0.14575195,-0.7798462,0.07366943
-0.38671875,-0.7437134,0.13226318
-0.09741211,-0.87945557,0.11395264
0.20019531,-1.2832642,0.27288818
0.20385742,-1.2593384,0.32781982
0.09277344,-1.2595825,0.5380249
-0.15722656,-0.8530884,0.23162842
-0.05810547,-0.7070923,0.19720459
0.15576172,-0.723938,0.31195068
0.03466797,-0.69732666,0.18377686
0.17016602,-1.2671509,0.5014038
-0.21582031,-1.1411743,0.16448975
0.12524414,-1.5244751,0.3126831
-0.16625977,-0.9451294,0.34613037
-0.1784668,-0.8225708,0.08319092
-0.029785156,-0.8086548,0.13128662
-0.044677734,-0.677063,0.13446045
-0.47021484,-0.81915283,0.15008545
0.044189453,-0.9627075,0.33465576
0.09692383,-1.1138306,0.23773193
0.18652344,-1.390686,0.4262085
-0.003662109,-1.1690063,0.38153076
-0.09863281,-0.89630127,0.25213623
0.033447266,-0.69317627,0.1708374
0.0859375,-0.8413696,0.24822998
0.043945312,-0.77545166,0.13885498
0.099853516,-1.1026001,0.3624878
-0.076171875,-1.2380981,0.14031982
0.04736328,-1.1970825,0.02508545
-0.25683594,-1.263977,0.3085327
-0.048828125,-0.72735596,0.1305542
-0.1706543,-1.019104,0.1864624
-0.18310547,-0.65997314,-0.0491333
0.18676758,-0.8250122,-0.078430176
-0.10620117,-1.0261841,0.050476074
-0.31445312,-0.7341919,0.025817871
-0.095947266,-0.59503174,-0.04864502
-0.059326172,-1.4138794,0.31610107
-0.44335938,-0.954895,0.22894287
-0.32226562,-0.92559814,0.1317749
0.58813477,-1.0879517,0.14813232
0.1652832,-1.3394165,0.432312
-0.27392578,-0.95269775,0.14910889
0.09301758,-0.9627075,0.3060913
-0.0925293,-0.6296997,0.12860107
0.14941406,-0.5886841,0.13885498
0.16723633,-1.281311,0.33172607
-0.1418457,-0.88653564,0.08392334
0.08642578,-1.5186157,0.08270264
-0.15039062,-1.211731,0.22332764
-0.10424805,-1.0401001,0.30828857
-0.015136719,-0.45977783,-0.09088135
-0.056396484,-0.69415283,-0.013977051
-0.4658203,-0.95562744,0.18914795
-0.07495117,-0.86505127,0.07757568
0.54003906,-1.2219849,0.34466553
-0.22631836,-1.7922974,0.45062256
-0.076660156,-0.9536743,0.15130615
0.07788086,-0.8960571,0.22210693
-0.045410156,-0.5186157,0.10028076
0.09423828,-0.86383057,0.16375732
0.08178711,-1.0899048,0.16864014
-0.06225586,-1.0559692,-0.028137207
-0.06518555,-1.647522,0.39715576
-0.19384766,-0.95147705,0.08831787
0.3010254,-1.3018188,0.5043335
-0.23999023,-0.9024048,-0.06500244
0.2705078,-1.3796997,0.18890381
-0.49047852,-1.4854126,0.32318115
-0.087402344,-0.5940552,0.07537842
-0.06518555,-0.6189575,0.018981934
-0.203125,-0.8340454,0.11785889
-0.27856445,-0.9495239,0.097839355
0.20385742,-1.0767212,0.20916748
0.44189453,-1.5442505,0.3768921
-0.3317871,-1.1655884,0.25775146
0.07421875,-0.77911377,0.18353271
0.055419922,-0.68048096,0.19085693
0.024902344,-0.6265259,0.059265137
0.30395508,-1.0418091,0.23065186
-0.17944336,-1.1550903,0.0289917
0.29760742,-1.5066528,0.020935059
-0.3173828,-1.201477,0.30291748
-0.17773438,-0.71099854,-0.026184082
0.26342773,-0.82110596,0.13153076
-0.099609375,-0.68414307,0.0680542
-0.46435547,-0.7036743,0.05731201
0.008056641,-1.1504517,0.12225342
0.5336914,-0.9956665,0.24993896
-0.31176758,-1.5130005,0.6063843
0.2475586,-0.7788696,0.1774292
0.14331055,-0.6626587,0.20233154
-0.11425781,-0.64971924,0.15423584
0.33666992,-0.7678833,0.21258545
-0.23950195,-1.56427,-0.06036377
0.21826172,-1.4588013,0.5944214
-0.21533203,-1.1223755,0.33880615
0.09472656,-0.49664307,0.013122559
-0.0690918,-0.6050415,0.024841309
-0.5124512,-1.2034302,0.30682373
-0.1484375,-0.8701782,-0.019348145
0.7788086,-1.3931274,0.19134521
0.09057617,-1.6245728,0.6207886
-0.3581543,-0.8987427,0.19720459
0.25268555,-0.9368286,0.4081421
0.011962891,-0.53131104,0.1852417
-0.03955078,-0.49761963,0.059265137
0.34570312,-1.3572388,0.5182495
0.005371094,-1.0540161,0.042419434
-0.21801758,-1.6255493,0.40716553
-0.36865234,-0.64263916,0.018737793
0.06933594,-0.42633057,-0.055480957
0.4638672,-1.6572876,0.3751831
0.039794922,-0.82354736,0.17547607
-0.03857422,-1.2891235,0.022888184
0.25170898,-1.3460083,0.043884277
-0.48608398,-1.1819458,0.06561279
0.1965332,-0.98443604,0.12738037
0.038085938,-0.8599243,0.081726074
-0.26049805,-0.6567993,0.07952881
-0.15527344,-0.6651001,0.038024902
0.001953125,-1.0557251,0.2855835
-0.07324219,-1.0835571,0.17572021
0.28881836,-1.1397095,0.23187256
0.045166016,-1.2888794,0.5819702
-0.26220703,-0.7473755,0.17230225
0.14379883,-0.8230591,0.27142334
-0.000976563,-0.75494385,0.22479248
0.19995117,-0.7437134,0.20770264
0.020507812,-1.250061,0.2230835
-0.003173828,-1.1211548,0.000427246
-0.110839844,-1.3062134,0.34124756
-0.30151367,-0.7901001,0.054138184
0.0637207,-0.7695923,0.17645264
-0.27416992,-0.710022,0.02142334
-0.17675781,-0.94000244,0.1383667
0.47192383,-1.1836548,0.19354248
0.1953125,-1.3047485,0.20257568
-0.24169922,-1.0288696,0.36053467
-0.036376953,-0.60113525,0.078063965
0.110839844,-0.7637329,0.21429443
0.118652344,-0.9295044,0.20257568
0.09326172,-0.81378174,0.20013428
0.045166016,-1.3255005,0.038513184
-0.5505371,-1.4280396,0.36883545
-0.2849121,-0.56085205,-0.15020752
0.26635742,-0.72979736,0.1251831
-0.2319336,-0.9898071,0.15740967
-0.44067383,-0.72052,0.03656006
0.21484375,-1.1965942,0.1359253
0.36328125,-0.93341064,0.1828003
-0.2265625,-1.430481,0.6141968
-0.107421875,-0.6773071,0.06878662
0.10839844,-0.6375122,0.20941162
0.028564453,-0.72247314,0.18548584
0.22949219,-0.8242798,0.18328857
-0.22973633,-1.6057739,0.12005615
0.008056641,-1.1958618,0.34173584
-0.09008789,-1.0774536,0.35662842
0.022705078,-0.48980713,0.03753662
-0.12792969,-0.7776489,0.1005249
-0.33081055,-0.84747314,0.22796631
-0.041259766,-0.8779907,0.042663574
0.86157227,-1.5835571,0.48480225
-0.33642578,-1.6655884,0.51727295
-0.12231445,-0.6956177,0.10321045
0.19018555,-0.4956665,0.08734131
0.05493164,-0.8328247,0.25042725
0.22143555,-0.831604,0.13934326
-0.059326172,-1.2610474,-0.121154785
0.12573242,-1.7105103,0.25946045
-0.32226562,-1.3606567,0.29144287
-0.04638672,-0.43780518,-0.09649658
0.07836914,-0.46710205,-0.031066895
-0.6508789,-1.18927,0.043884277
-0.13574219,-0.86187744,0.05706787
0.6311035,-1.2420044,0.26849365
-0.12963867,-1.8877563,0.21429443
-0.12451172,-1.1282349,0.16375732
0.045410156,-0.8772583,0.29656982
-0.07324219,-0.6343384,0.09320068
0.10498047,-0.6296997,0.109313965
0.12890625,-1.1455688,0.32147217
-0.19458008,-0.7571411,0.20770264
-0.18066406,-0.6116333,0.042419434
-0.036376953,-1.2437134,0.33221436
0.22558594,-0.83843994,0.21063232
0.32861328,-1.8687134,0.55682373
-0.36523438,-0.85235596,0.089538574
0.08886719,-0.7883911,0.20819092
-0.007568359,-0.68292236,0.14984131
0.19360352,-0.57403564,0.1149292
0.07861328,-0.87213135,-0.31378174
0.43017578,-2.0,0.4454956
-0.4321289,-1.0962524,0.25238037
-0.061035156,-0.6404419,-0.18902588
-0.045410156,-0.6206665,0.059509277
-0.1496582,-0.8040161,0.047302246
-0.42578125,-0.9505005,0.10443115
0.4868164,-1.130188,0.113220215
0.45776367,-1.0413208,0.1305542
-0.24780273,-1.4014282,0.4796753
-0.032226562,-0.63531494,0.10614014
0.0546875,-0.6055298,0.14813232
0.22705078,-0.73272705,0.08416748
0.2788086,-0.80352783,0.10662842
-0.42114258,-1.7315063,0.014831543
0.07421875,-1.3062134,0.37005615
-0.23364258,-1.3150024,0.36029053
-0.002441406,-0.5462036,0.050964355
-0.14819336,-0.55181885,-0.03741455
-0.31933594,-1.1011353,0.2670288
0.10522461,-0.84259033,-0.024230957
0.5554199,-1.6829224,0.45599365
-0.14135742,-1.2114868,0.53533936
-0.11767578,-0.72247314,0.034118652
0.08105469,-0.8245239,0.109313965
0.030517578,-0.8723755,0.17034912
-0.05029297,-0.9043579,0.24261475
0.05810547,-0.81134033,0.23382568
0.19482422,-0.76641846,0.1395874
0.011230469,-1.4805298,-0.34576416
-0.2487793,-1.1882935,0.19622803
0.2043457,-0.5471802,0.17108154
-0.005859375,-0.3928833,0.11126709
0.28344727,-1.0496216,0.21820068
0.012695313,-0.82037354,0.000427246
-0.16845703,-1.4158325,-0.03302002
-0.14770508,-1.3904419,0.14984131
-0.118896484,-0.9614868,0.08782959
0.049804688,-0.5095825,-0.078430176
-0.091308594,-0.71539307,0.07904053
-0.42041016,-0.9102173,0.1605835
0.0078125,-0.8545532,0.030944824
0.9838867,-1.9133911,0.61053467
-0.47558594,-1.4622192,0.42718506
0.05419922,-0.72906494,0.2699585
0.13671875,-0.62091064,0.12371826
-0.002441406,-0.70684814,0.32196045
0.05883789,-0.73883057,0.19696045
0.11254883,-0.8740845,0.09857178
0.022705078,-1.7490845,0.2374878
-0.43798828,-1.7976685,0.20135498
-0.27319336,-0.6929321,0.09539795
-0.071777344,-0.6621704,0.03314209
-0.09350586,-0.5725708,-0.059143066
-0.38842773,-0.90167236,0.018981934
0.17700195,-1.1570435,0.24407959
0.38061523,-1.4317017,-0.020812988
-0.123535156,-1.3369751,0.35638428
-0.28466797,-0.71881104,0.043884277
0.2692871,-0.9324341,0.23504639
0.001708984,-0.59332275,0.17718506
-0.14819336,-0.79400635,0.19329834
0.114746094,-1.0010376,0.52508545
-0.45361328,-1.1533813,-0.20172119
0.36450195,-1.8369751,0.3439331
-0.14624023,-1.2940063,0.5739136
-0.20166016,-0.71954346,-0.1716919
0.039794922,-0.9385376,0.058288574
-0.08935547,-0.99786377,0.2958374
-0.50268555,-1.0635376,0.31829834
0.30078125,-0.8179321,0.003601074
0.17773438,-1.5276489,0.6273804
-0.3112793,-0.8196411,0.1461792
0.32910156,-0.87506104,0.27801514
-0.020263672,-0.7107544,0.21942139
-0.28881836,-0.74957275,0.36346436
0.10888672,-0.84381104,0.26019287
0.110839844,-1.3713989,0.03363037
0.034423828,-1.6204224,0.17010498
-0.26367188,-1.0845337,0.5680542
-0.1965332,-0.5803833,-0.21905518
0.04345703,-1.0664673,0.2789917
-0.12866211,-0.583313,-0.03326416
-0.45751953,-0.7769165,0.093444824
0.15576172,-0.83135986,0.137146
-0.2602539,-1.2056274,0.27191162
0.3581543,-1.0181274,0.15545654
0.048095703,-1.4043579,0.53289795
-0.36499023,-0.7449341,0.1642456
0.17456055,-0.704895,0.17718506
0.10644531,-0.8530884,0.38885498
-0.011474609,-0.55303955,0.046081543
0.12036133,-1.0176392,0.3583374
-0.15966797,-1.2415161,0.022888184
0.23388672,-1.2488403,0.29925537
-0.4020996,-1.2625122,0.47650146
-0.09814453,-0.6038208,0.004089356
0.012939453,-0.7835083,0.13372803
-0.19995117,-0.79937744,0.12860107
-0.3125,-0.909729,0.14202881
0.36889648,-1.2886353,0.3842163
0.24902344,-1.1690063,0.25775146
-0.118896484,-1.0879517,0.44696045
-0.16503906,-0.6140747,0.066345215
0.13500977,-0.75665283,0.21356201
