accelX,accelY,accelZ
0.1459961,-0.95880127,0.18865967
0.11816406,-0.9824829,0.23675537
0.13598633,-0.96710205,0.20794678
0.22021484,-0.92315674,0.20843506
0.20629883,-0.80792236,0.29388428
0.22924805,-1.1453247,0.49798584
0.13085938,-0.88604736,0.32440186
0.2265625,-0.81036377,0.34735107
0.09472656,-1.2029419,0.37713623
0.09033203,-0.78302,0.038269043
0.12915039,0.38250732,0.35247803
-0.044921875,-0.043762207,-0.007385254
0.54003906,-2.0,0.026550293
0.45043945,-0.71539307,-0.15118408
-0.049560547,-0.6096802,-0.32037354
0.9831543,-1.086731,0.20257568
-0.48095703,-0.79937744,0.07098389
-0.123291016,0.4364624,-0.14019775
-0.068359375,-0.09527588,-0.12628174
1.999939,-2.0,0.8607788
-0.043945312,-0.47979736,-0.031066895
-0.33203125,-1.041565,-0.425354
0.9628906,-1.0735474,-0.015686035
-1.0512695,0.2736206,0.22747803
0.24438477,0.113708496,0.1984253
0.09423828,-0.39483643,-0.34136963
0.10644531,-1.2271118,0.8324585
-0.43823242,-0.008605957,-0.7112427
1.472168,-1.0579224,-0.30474854
-0.7980957,0.85931396,-0.2930298
0.15283203,0.15032959,-0.14483643
0.63842773,-0.59381104,-0.086242676
-0.1574707,-1.2844849,0.43255615
-0.24511719,-1.4922485,0.09832764
0.4416504,-0.8735962,0.30267334
-0.2607422,0.005065918,0.38568115
-0.115722656,-0.3291626,0.04901123
1.7880859,-2.0,-0.8689575
1.1206055,-1.5628052,0.7201538
-0.22607422,-0.71661377,-0.0051879883
0.09667969,-0.45758057,0.13983154
0.022705078,-0.70684814,0.10418701
0.005859375,-0.52667236,0.07928467
1.6884766,-0.8233032,0.36639404
-0.23876953,-0.6255493,-0.09552002
-0.3798828,0.5717163,-0.049621582
-0.051757812,-0.91778564,0.41619873
-0.24023438,-1.0393677,0.21942139
-0.49658203,-0.41485596,0.2411499
0.37280273,-1.3513794,0.34661865
0.11669922,-0.8821411,0.09954834
-0.17480469,-0.8320923,0.29534912
0.23730469,-1.2026978,0.20819092
-0.3359375,0.6329956,0.0065307617
0.11401367,-0.12237549,-0.097717285
1.999939,-2.0,1.8671265
0.19946289,-0.39093018,0.14984131
-0.03125,-0.45587158,-0.33184814
1.4589844,-0.569397,0.10882568
-0.8269043,-1.2036743,0.36712646
0.040771484,0.3764038,0.07659912
-0.14208984,-0.20806885,0.001159668
1.999939,-2.0,0.10491943
0.19555664,-0.12188721,-0.16998291
-0.50561523,-0.6135864,-0.009338379
0.8208008,-0.76763916,0.09466553
-0.24291992,-6.1035156e-05,0.17254639
-0.041015625,0.2880249,0.13031006
0.234375,-0.98638916,-0.18658447
0.48095703,-0.8633423,0.59588623
-0.09643555,-0.7871704,-0.12213135
1.1494141,-1.4683228,0.52874756
-0.47875977,-0.42486572,0.112976074
-0.1809082,0.40863037,-0.09185791
-0.0949707,-0.15582275,-0.117248535
1.999939,-2.0,1.3764038
0.53759766,-0.7456665,0.2584839
-0.1550293,-1.4187622,-0.6975708
0.5102539,-0.5523071,0.113220215
-0.7414551,-0.33380127,0.7213745
0.24609375,-0.6897583,0.18011475
-0.03930664,-0.59381104,-0.5232544
-0.6381836,-2.0,0.5441284
-0.22241211,-1.0498657,0.23577881
1.3005371,-1.0911255,0.4935913
-0.13476562,-0.18463135,0.03778076
-0.51538086,0.25091553,0.18865967
0.06982422,-0.16656494,-0.15679932
1.999939,-1.5405884,0.6557007
-0.23754883,-0.8184204,0.23553467
0.026611328,-0.64923096,-0.018371582
0.857666,-0.53912354,0.4574585
-0.638916,-0.3369751,0.36566162
0.32055664,-0.2539673,-0.1404419
0.54248047,-1.0645142,0.276062
-0.05834961,-1.269104,0.4459839
0.26660156,-0.8435669,0.6310425
0.14526367,-0.5733032,-0.022033691
0.21948242,-0.8753052,0.2748413
-0.029052734,-0.862854,0.097351074
0.29516602,-1.1130981,0.17572021
1.0183105,-0.585022,0.10784912
-0.73999023,-1.5249634,-0.10357666
0.040771484,-0.31671143,0.1305542
0.90283203,-1.100647,0.77508545
0.16552734,-0.8933716,0.32684326
0.19311523,-0.8633423,0.24945068
-0.04345703,0.042907715,0.21673584
-0.041259766,0.04559326,-0.05279541
-0.9987793,-2.0,0.75701904
0.049804688,-0.46124268,-0.105773926
-0.12036133,-0.5249634,-0.4385376
1.2841797,-0.8267212,0.8065796
-0.4975586,-1.331604,0.16888428
0.21801758,0.2008667,0.14959717
-0.056640625,0.0692749,-0.1963501
-0.26489258,-1.7835083,-0.59820557
0.8071289,-0.43756104,0.22357178
-0.28442383,-0.24884033,-0.013977051
1.999939,-0.51275635,-0.06964111
-0.12963867,-0.35992432,0.045837402
-0.4741211,0.36102295,-0.11016846
0.07885742,-0.19366455,-0.0044555664
1.999939,-2.0,1.999939
0.3930664,-0.87579346,0.6347046
-0.1616211,-0.8652954,-0.16558838
1.0187988,-0.7949829,-0.07183838
-0.46044922,-0.04449463,0.078552246
0.0107421875,0.5790405,0.20941162
-0.046142578,-0.6079712,-0.41973877
-0.02734375,-1.3389282,0.50042725
-0.5246582,-0.30059814,-0.4619751
1.1660156,-1.362854,0.46575928
-0.4675293,0.21820068,0.04534912
0.095458984,-0.18292236,0.120788574
0.15112305,-1.289856,0.6503296
-0.78027344,-0.33306885,-0.18292236
1.999939,-1.6453247,1.5719604
-0.2475586,-1.020813,0.035583496
0.16235352,-0.2420044,-0.22735596
-0.18017578,0.2921753,0.1552124
-0.18310547,-0.5154419,-0.22906494
1.375,-1.6362915,0.90301514
-0.5407715,-0.27886963,-0.6506958
1.4689941,-1.4851685,0.74798584
-0.18920898,-0.2078247,0.050231934
0.35595703,-0.98101807,0.23626709
0.50878906,-0.5906372,0.16741943
0.13110352,-0.659729,0.2518921
0.6320801,-2.0,0.91619873
-0.39160156,-0.01739502,0.09686279
0.15649414,-0.91607666,-0.42730713
0.5666504,-0.7678833,0.19085693
-1.0021973,0.14398193,-0.12750244
0.32592773,0.08660889,0.17376709
0.039794922,-0.75128174,-0.2444458
0.34375,-0.60284424,0.3793335
-0.4165039,0.04534912,-0.4475708
1.999939,-0.22930908,0.078308105
-0.35620117,-0.21148682,-0.16729736
-0.16772461,0.5355835,0.032165527
0.055419922,-0.13848877,-0.1963501
1.999939,-2.0,0.0014038086
0.19555664,-0.29693604,-0.16412354
-0.90405273,-1.2251587,-0.06036377
0.38183594,-1.0527954,0.29974365
-0.37939453,0.34881592,-0.051818848
0.19116211,0.16473389,0.21014404
0.012451172,-0.7815552,-0.2617798
0.20727539,-0.76568604,0.36175537
0.8757324,-2.0,1.2138062
0.1694336,-1.298645,0.3427124
-0.026855469,-0.28936768,0.22479248
0.009521484,-0.21221924,0.15447998
1.999939,-2.0,0.24700928
0.58984375,-0.4697876,0.89105225
-0.24926758,-0.67071533,0.08856201
0.54907227,-0.46539307,0.0758667
0.12890625,-0.6553345,0.08319092
-0.22753906,-0.87750244,0.26263428
0.40893555,-0.5005493,0.1239624
-0.24121094,0.18109131,0.089538574
-0.05126953,-0.007873535,-0.066711426
1.999939,-2.0,1.999939
0.13476562,-0.4216919,-0.030822754
-2.0,-2.0,1.999939
-0.26879883,-0.5640259,-0.17144775
-0.65478516,0.5241089,0.074157715
0.056640625,-0.06109619,0.03289795
1.999939,-2.0,1.9144897
0.8540039,-0.24761963,0.2855835
1.999939,-2.0,1.999939
0.12792969,-0.36846924,0.16497803
-0.02709961,-0.093566895,-0.12945557
0.35107422,-0.06890869,-0.39898682
0.5776367,-1.8753052,0.36834717
-0.092285156,-0.6616821,0.2753296
0.024658203,-0.6983032,-0.29962158
0.42260742,-0.6716919,0.36175537
-0.25219727,-0.83673096,0.051208496
1.999939,-2.0,0.9725952
-0.04321289,-0.35333252,-0.06011963
-0.38964844,-0.5154419,0.27166748
-0.06567383,-0.5515747,-0.30255127
0.73413086,-1.4714966,0.46209717
-0.47631836,-0.028381348,0.12908936
0.052734375,-0.5593872,-0.51763916
1.1220703,-0.8233032,0.16473389
-0.9135742,-0.53692627,0.3949585
0.35302734,0.4647827,-0.07086182
-0.0715332,-0.16363525,-0.17779541
-0.44335938,-2.0,1.8324585
1.0231934,-0.09429932,-0.2756958
-0.62890625,-1.0256958,-0.6519165
0.32885742,-0.6838989,0.2538452
-0.24072266,0.28729248,0.22381592
-0.072753906,0.13250732,0.011657715
-0.22827148,-1.2578735,-0.19415283
0.7451172,-0.87872314,0.8878784
0.10107422,0.017028809,-0.35406494
0.08300781,-0.77593994,-0.5166626
0.37402344,-1.0823364,0.36346436
-0.41992188,-0.833313,0.12347412
0.42089844,-1.475647,0.33026123
-0.19360352,-0.73272705,0.31781006
-0.0073242188,-0.0647583,0.22454834
-0.091308594,0.38763428,-0.300354
-0.10546875,-0.21661377,-0.2756958
0.6369629,-0.46466064,-0.0010375977
-0.24145508,-0.5576782,-0.5388794
1.6523438,-0.55914307,-0.5022583
-0.92993164,0.8956909,-0.021057129
-0.0031738281,-0.066223145,-0.0020141602
0.4128418,-1.1636353,-0.25982666
0.6159668,-0.93951416,0.31536865
-0.18017578,-0.4800415,-0.41656494
1.869873,-0.9360962,0.2814331
-0.45361328,-0.5894165,0.23406982
-0.05517578,0.38641357,-0.08404541
0.024658203,-0.093322754,-0.11993408
0.18066406,-0.5576782,-0.16729736
0.19091797,-0.4661255,0.3468628
-1.1506348,-2.0,0.6605835
0.5251465,-0.65753174,-0.047424316
-0.07470703,-0.48760986,0.5060425
-0.072753906,-0.5171509,0.2687378
0.28710938,-0.8526001,-0.57696533
0.7832031,-1.348938,0.69281006
-0.15551758,-0.16070557,0.12738037
0.0871582,-0.61968994,0.04486084
0.32128906,-0.6638794,0.07757568
0.2927246,-0.80548096,0.36102295
0.6467285,-1.9180298,1.0109253
0.6484375,-0.7905884,0.27947998
-0.18115234,-0.5757446,0.22918701
0.05493164,0.4208374,0.10760498
-0.025878906,-0.3718872,-0.24273682
0.7644043,-1.8257446,0.54559326
-0.15991211,-0.72247314,0.07977295
0.2861328,-0.5713501,-0.30645752
0.6154785,-0.960022,-0.13531494
-0.78100586,-0.31524658,0.49945068
0.49267578,0.758728,-0.16973877
0.008300781,-0.16827393,-0.5210571
0.9765625,-1.9234009,0.5807495
-0.44799805,-0.024230957,-0.65704346
1.999939,-2.0,0.64398193
-0.4116211,0.18695068,-0.105285645
-0.011474609,-0.2510376,0.24163818
0.29296875,-0.4072876,0.18890381
0.2331543,-1.2976685,-0.68096924
0.642334,-1.5686646,0.58270264
0.21655273,-0.6890259,0.11053467
0.02709961,-0.16998291,-0.13775635
0.9453125,-1.6504517,0.15130615
-0.31030273,0.32489014,-0.26715088
1.999939,-2.0,1.999939
-0.41967773,-0.45513916,-0.32232666
-0.12768555,0.12347412,-0.16241455
-0.036865234,0.050231934,0.05657959
0.21044922,-0.90093994,-0.9155884
0.50341797,-0.16705322,0.49554443
-0.22460938,-0.3892212,-0.30718994
1.999939,0.2333374,-0.49298096
-0.42211914,0.06317139,0.020690918
-0.0546875,0.6342163,0.13470459
0.11010742,-2.0,-0.9973755
0.07763672,-1.2839966,0.47332764
-0.18481445,0.1515503,0.0680542
1.999939,-2.0,1.2518921
-0.3798828,0.30340576,-0.074523926
-0.95458984,1.0499878,0.37835693
0.024169922,-1.2793579,-0.76275635
-0.4494629,-1.1448364,0.023620605
-0.091308594,-0.5928345,0.0524292
0.8911133,-1.3174438,-0.5059204
-0.638916,0.27825928,0.041931152
0.34326172,0.42718506,0.093688965
-0.21557617,-0.6543579,-0.32232666
0.7705078,-0.8760376,0.92767334
1.217041,-2.0,0.21502686
0.04272461,-1.6970825,-0.06378174
-0.49145508,-0.7041626,0.2526245
0.2722168,-0.6387329,0.2526245
-0.16040039,-0.31793213,0.042175293
-0.67163086,-2.0,-0.035461426
0.40576172,-0.28277588,0.22747803
-0.21923828,-0.39923096,0.17547607
0.61694336,-1.9951782,0.80999756
0.31079102,-0.8479614,0.17230225
-0.088378906,0.590271,0.23699951
0.1484375,-1.3862915,-1.2109985
0.48657227,-1.5786743,0.50579834
-0.01953125,0.46502686,-0.09820557
1.999939,-2.0,1.999939
-1.0498047,-0.7893677,0.019714355
0.6062012,1.4418335,-0.13116455
-0.0234375,-1.2139282,-0.42633057
-0.118652344,-1.6211548,0.34539795
-0.34204102,0.18914795,-0.4590454
1.999939,-2.0,1.999939
-0.45703125,-0.11627197,-0.19708252
1.0769043,1.7511597,-0.012023926
-0.35498047,-1.3462524,-0.56573486
-0.20092773,-2.0,0.24993896
-0.28125,0.08123779,-0.40704346
1.999939,-2.0,0.947937
-0.16186523,0.6166382,-0.12286377
-0.532959,1.1373901,-0.038391113
-0.6594238,-2.0,-1.8386841
0.6850586,-0.56207275,0.06512451
-0.15014648,-0.24859619,-0.05718994
1.9758301,-1.062561,0.30926514
-0.41723633,0.20355225,-0.085998535
-0.1472168,0.9581909,0.2111206
-0.12060547,-0.47564697,-0.32037354
0.51220703,-0.7305298,0.4196167
-0.2524414,0.2008667,0.0993042
1.999939,-2.0,1.7487183
-0.40454102,0.45135498,-0.22418213
-1.222168,1.5331421,0.21331787
-0.10473633,-0.48638916,-0.4578247
0.49291992,-0.64508057,0.37249756
0.037841797,0.06390381,-0.29083252
0.8718262,-1.229065,-0.070373535
-1.1157227,-0.15045166,0.6017456
0.21875,-0.13433838,0.0770874
1.032959,-1.1704712,1.1596069
-0.21826172,-2.0,0.23895264
0.65844727,-1.1106567,0.18890381
0.12475586,-0.5647583,0.10272217
-0.0056152344,-0.45855713,0.0060424805
0.23999023,-0.9793091,0.1954956
0.29248047,-1.1616821,0.48895264
0.3803711,-0.9529419,-0.024963379
0.73828125,-0.9517212,0.22381592
-0.61083984,-1.142395,-0.12799072
0.17919922,-0.6460571,0.09686279
0.7741699,-1.1072388,0.5582886
0.035888672,-0.8418579,0.2543335
0.21850586,-1.0171509,0.3788452
0.42089844,-0.8892212,0.24627686
0.13427734,-1.0774536,0.28607178
0.17602539,-0.80548096,0.16326904
0.1850586,-0.9898071,0.16229248
0.22387695,-1.0449829,0.17156982
0.15820312,-0.97735596,0.12176514
0.095214844,-1.0742798,0.16351318
0.23364258,-1.0266724,0.1954956
0.18139648,-0.94122314,0.13494873
0.15209961,-0.9937134,0.16009521
0.14697266,-0.99713135,0.2177124
0.21118164,-0.956604,0.13397217
0.3227539,-0.9793091,0.23284912
0.25219727,-0.9109497,0.24041748
0.25830078,-0.9229126,0.22357178
