accelX,accelY,accelZ
-0.657959,-1.4922485,0.16595459
-0.1743164,-0.57476807,-0.042785645
0.31176758,-0.8550415,0.06951904
0.14208984,-0.8687134,-0.05255127
-0.122558594,-0.26519775,0.046325684
-0.07080078,-0.6567993,0.09857178
0.030273438,-1.1958618,-0.41485596
-0.41796875,-1.2512817,-0.25006104
-0.1809082,-1.8477173,-0.25689697
0.07861328,-0.7307739,0.022888184
-0.1274414,-0.66973877,-0.036193848
-0.23510742,-0.6109009,0.006286621
-0.33276367,-0.6050415,0.030944824
-0.009521484,-0.5249634,-0.22076416
-0.1015625,-1.6992798,-0.20074463
-0.63305664,-2.0,0.24798584
0.03540039,-0.33892822,-0.04840088
-0.024658203,-0.39483643,0.026062012
-0.14111328,-0.66119385,-0.043518066
-0.19165039,-0.7022095,-0.0256958
0.125,-1.1829224,-0.06549072
-0.84155273,-1.2893677,0.17474365
-0.9025879,-1.3740845,0.19744873
-0.34423828,-0.7835083,-0.02520752
-0.14208984,-0.66534424,-0.11627197
-0.3618164,-0.6885376,0.17181396
-0.044433594,-0.3945923,-0.030822754
-0.5332031,-1.0247192,0.14910889
0.24780273,-1.4089966,0.03778076
-0.7102051,-1.8587036,0.08660889
-0.03125,-0.78912354,0.06414795
0.03955078,-0.5442505,0.02532959
-0.23291016,-0.62823486,-0.14215088
-0.24511719,-0.8711548,0.17425537
0.1484375,-1.5967407,-0.032287598
-0.75756836,-0.84991455,0.39471436
-0.38916016,-1.2722778,-0.007873535
-0.26293945,-0.8735962,-0.0022583008
-0.23901367,-0.8184204,0.005065918
-0.2626953,-0.5718384,0.17547607
0.22802734,-0.33135986,0.06317139
-0.114746094,-1.46344,0.14935303
-0.6286621,-1.2041626,0.07489014
-0.37280273,-1.3096313,0.04437256
-0.18652344,-0.991272,0.0014038086
0.016845703,-0.4824829,-0.0178833
0.040527344,-0.472229,-0.0017700195
-0.13891602,-0.9229126,0.2838745
0.15283203,-1.6069946,-0.35162354
-0.49804688,-1.8728638,0.05609131
-0.11816406,-0.9170532,0.054382324
-0.26635742,-0.58306885,0.0065307617
-0.28686523,-0.99713135,-0.07550049
-0.11376953,-0.5430298,-0.029846191
-0.31689453,-0.55426025,-0.034484863
-0.080322266,-1.0935669,0.17791748
0.26904297,-1.3980103,-0.206604
-0.6401367,-1.4893188,0.053894043
-0.17675781,-1.0283813,0.17840576
-0.1303711,-0.6814575,0.029968262
-0.015380859,-0.54522705,0.11566162
-0.0075683594,-0.7276001,-0.051818848
0.0024414062,-1.1414185,-0.00982666
-0.10864258,-1.3118286,-0.12384033
0.41308594,-1.3965454,0.031188965
0.015380859,-0.81573486,-0.09918213
-0.18164062,-1.0410767,-0.13604736
-0.3852539,-0.81427,-0.014221191
-0.20336914,-0.3731079,0.03363037
0.11401367,-0.34014893,0.08050537
-0.5576172,-1.5061646,0.06707764
-0.3605957,-2.0,0.21307373
-0.028564453,-0.90826416,-0.031066895
0.009521484,-0.5762329,-0.062561035
0.009765625,-0.82281494,0.09857178
0.09350586,-0.6487427,0.04559326
-0.32836914,-1.3118286,0.4755249
0.111328125,-1.0081177,-0.6148071
-0.4284668,-1.192688,0.117370605
-0.28125,-1.272522,-0.09967041
-0.16186523,-0.76641846,0.059753418
-0.20947266,-0.7996216,0.015075684
-0.3154297,-0.51690674,0.085632324
-0.09326172,-0.798645,0.026550293
0.2939453,-1.1853638,-0.24395752
-0.15014648,-0.93292236,0.11444092
-0.23779297,-1.1209106,-0.13970947
-0.049316406,-1.1558228,-0.050598145
-0.030517578,-0.89556885,-0.07720947
-0.03930664,-0.7319946,-0.1350708
-0.6447754,-0.6069946,0.08758545
-0.38720703,-0.7112427,0.3397827
0.78125,-1.5122681,-0.7263794
-0.22924805,-1.7466431,-0.0020141602
0.0026855469,-0.923645,0.059753418
-0.06347656,-0.7444458,-0.08087158
-0.0021972656,-0.5557251,0.0053100586
0.10620117,-0.5615845,-0.010070801
-0.0021972656,-0.8272095,-0.28082275
0.14233398,-1.8911743,-0.29229736
-0.19067383,-1.5830688,0.152771
-0.21166992,-0.6878052,-0.13043213
-0.16674805,-0.7542114,-0.11920166
-0.17797852,-0.88848877,-0.0647583
-0.11401367,-0.6045532,-0.06304932
-0.10449219,-0.6189575,-0.09844971
-0.13208008,-0.69244385,-0.04449463
0.1184082,-1.4915161,-0.1843872
-0.4177246,-1.0137329,-0.0647583
-0.1315918,-0.72003174,-0.17315674
-0.040527344,-0.6956177,-0.04522705
-0.107910156,-0.7581177,0.028259277
-0.08154297,-0.5130005,-0.13092041
-0.084228516,-0.8389282,0.01727295
-0.38061523,-1.2146606,-0.7529907
-0.30297852,-1.4439087,-0.33135986
-0.16845703,-1.1516724,-0.06427002
-0.28833008,-1.0215454,0.047058105
-0.2109375,-0.9768677,-0.23736572
-0.18383789,-0.87042236,-0.12774658
0.010009766,-0.3694458,-0.26470947
-0.31835938,-0.6704712,-0.14093018
-0.28393555,-1.4524536,-0.13482666
0.26831055,-1.1455688,-0.41680908
-0.13769531,-1.1951294,-0.046691895
-0.03857422,-0.9072876,0.039489746
-0.12695312,-0.76568604,-0.05645752
0.011962891,-0.6748657,-0.12310791
0.016845703,-0.6026001,0.06488037
-0.19091797,-0.53863525,-0.2937622
0.17626953,-1.593811,-0.66729736
0.8989258,-1.3025513,-0.48614502
0.20581055,-0.94732666,-0.36920166
-0.11669922,-0.92803955,-0.058654785
-0.12597656,-0.8201294,-0.21173096
-0.14892578,-0.76031494,-0.02960205
-0.1352539,-0.5418091,-0.07965088
-0.14135742,-0.7217407,-0.08355713
-0.3173828,-1.4199829,-0.39019775
0.056640625,-1.1990356,-0.31304932
-0.25952148,-1.3047485,0.18939209
-0.09008789,-0.8501587,0.024108887
0.046875,-0.78570557,-0.020080566
-0.025634766,-0.49761963,-0.030334473
-0.08642578,-0.5288696,-0.08673096
-0.59521484,-1.0894165,0.105651855
0.29736328,-2.0,-0.26617432
0.2619629,-1.1880493,-0.25665283
-0.068603516,-0.7764282,-0.117004395
-0.14428711,-0.9475708,-0.12921143
-0.16455078,-0.97906494,-0.09893799
-0.38378906,-0.673645,0.14398193
-0.08959961,-0.5967407,-0.030578613
0.24731445,-0.63775635,-0.07525635
-0.21459961,-2.0,0.14447021
-0.55737305,-1.2622681,0.1954956
-0.23779297,-1.0630493,-0.14678955
-0.03491211,-0.75665283,-0.0037231445
-0.059570312,-0.6560669,0.07318115
0.0234375,-0.9385376,0.14788818
0.3244629,-0.44659424,-0.17340088
-0.40820312,-1.0115356,-0.46099854
-1.0874023,-1.8816528,0.00970459
-0.072021484,-1.8821411,-0.124816895
-0.36865234,-1.1057739,0.027526855
-0.067871094,-0.5991821,-0.08282471
-0.09790039,-0.6873169,-0.08917236
-0.6726074,-1.0354614,-0.016174316
0.16259766,-0.93536377,0.109802246
1.2897949,-0.9758911,-0.6814575
0.04321289,-1.3372192,0.05218506
-0.13842773,-0.6382446,-0.0051879883
0.021728516,-0.7017212,-0.018859863
-0.13110352,-0.6380005,0.17718506
0.036132812,-0.66363525,-0.0178833
-0.19262695,-0.88165283,-0.051574707
-0.15527344,-1.9492798,-0.6682739
0.07470703,-1.4639282,-0.20318604
-0.33520508,-1.1365356,-0.035705566
-0.13842773,-0.85040283,-0.13531494
-0.19189453,-0.6975708,0.0045776367
-0.17358398,-0.65802,-0.12945557
-0.119140625,-0.6692505,0.20941162
-0.14770508,-1.5969849,-0.11260986
-0.35864258,-1.2390747,0.2994995
-0.045410156,-0.85040283,0.042419434
-0.0793457,-0.7424927,-0.024963379
-0.14428711,-0.76446533,0.07928467
-0.15185547,-0.89923096,-0.18878174
-0.12451172,-0.9312134,0.007019043
-0.41796875,-0.8328247,0.2020874
-0.21435547,-0.6218872,0.0028686523
0.017089844,-0.456604,-0.057434082
0.079589844,-1.5794067,-0.11431885
-0.37646484,-2.0,-0.04840088
-0.704834,-1.2276001,0.09100342
-0.15576172,-0.47052002,-0.085754395
-0.16210938,-0.8933716,-0.0020141602
-0.08081055,-0.5449829,0.093444824
0.10498047,-0.73883057,-0.04547119
-0.34301758,-0.61065674,-0.425354
-0.92578125,-1.5901489,-0.68341064
-0.30078125,-1.1533813,0.07318115
-0.052490234,-0.9951782,-0.08404541
-0.2915039,-0.77716064,0.0053100586
-0.19165039,-0.8635864,-0.042053223
-0.15356445,-0.69073486,-0.008850098
-0.07470703,-0.3538208,-0.109680176
0.111816406,-1.046936,-0.015930176
-0.23999023,-1.9121704,-0.3040161
-0.33520508,-1.5310669,0.121032715
-0.095214844,-0.61505127,0.070739746
0.03173828,-0.7432251,-0.039123535
0.010009766,-0.59552,0.05609131
-0.13916016,-0.6721802,0.0079956055
0.10498047,-1.3152466,-0.12530518
-0.50683594,-1.8023071,-0.15557861
-0.84594727,-1.5337524,0.07244873
-0.2553711,-0.56329346,-0.01763916
-0.28930664,-0.87506104,-0.065979004
-0.12573242,-0.75665283,-0.011047363
-0.15844727,-0.5967407,-0.006164551
-0.3125,-0.98394775,0.004333496
0.39794922,-1.1963501,-0.36773682
0.018798828,-1.0410767,-0.09698486
-0.1809082,-1.2295532,-0.013977051
-0.13208008,-0.8814087,0.050231934
-0.00024414062,-0.5618286,0.0016479492
-0.037597656,-0.6309204,-0.15875244
-0.15576172,-0.64385986,0.0033569336
-0.09057617,-1.5401001,-0.38775635
0.043701172,-1.1526489,0.10394287
-0.14575195,-1.2310181,0.13934326
-0.19750977,-0.79229736,0.0072631836
0.061279297,-0.9143677,-0.2210083
-0.32788086,-0.7937622,0.009216309
-0.1796875,-0.5899048,-0.011047363
-0.2614746,-0.7451782,0.014831543
0.16845703,-1.2166138,-0.3591919
1.1044922,-1.3169556,-0.49224854
-0.076171875,-1.4456177,-0.035949707
-0.07836914,-0.8928833,-0.032287598
-0.08325195,-0.6680298,0.015563965
-0.14379883,-0.50006104,0.035827637
-0.123291016,-0.61602783,0.020446777
-0.041259766,-1.0967407,-0.3735962
-0.29077148,-2.0,-0.10650635
0.111816406,-0.9065552,-0.1272583
-0.0034179688,-0.96710205,-0.13140869
-0.109375,-0.9846802,-0.11407471
-0.12451172,-0.9026489,-0.19610596
-0.42211914,-0.5430298,0.022155762
-0.16113281,-0.5586548,-0.020080566
0.21777344,-0.96051025,-0.24053955
-0.19750977,-1.27594,0.0446167
-0.26733398,-1.4067993,0.20843506
-0.064453125,-0.81500244,0.0079956055
0.03540039,-0.9314575,-0.015930176
-0.1850586,-0.8303833,0.17425537
-0.08154297,-0.6782837,0.058532715
0.021972656,-0.7695923,-0.003967285
-0.30200195,-1.4534302,0.3768921
0.3269043,-0.8748169,-0.23590088
-0.75756836,-1.3643188,0.26239014
0.083740234,-0.7385864,-0.027648926
-0.08862305,-0.8057251,-0.036193848
-0.26391602,-0.8904419,0.050720215
-0.09106445,-0.7288208,0.053894043
-0.28320312,-0.7473755,0.31219482
-0.18530273,-0.9043579,0.2616577
0.20605469,-1.2175903,-0.14971924
-0.07299805,-0.831604,-0.18951416
-0.13574219,-0.7937622,-0.20074463
-0.05126953,-0.50323486,-0.012268066
-0.16748047,-0.5767212,0.0758667
0.47729492,-1.2715454,-0.37994385
0.12841797,-1.2153931,-0.22271729
-0.13989258,-1.024231,-0.078430176
-0.0053710938,-0.67926025,-0.02520752
-0.040283203,-0.6421509,-0.03692627
0.111816406,-0.8118286,-0.25543213
-0.03857422,-0.8858032,0.07928467
0.11645508,-1.2056274,-0.8743286
-1.121582,-1.7612915,0.09320068
-0.075683594,-1.3694458,-0.04498291
-0.020751953,-0.5442505,-0.1885376
-0.1303711,-0.9155884,-0.11114502
-0.2668457,-0.6255493,0.13470459
0.14160156,-0.5557251,-0.24468994
-0.068359375,-0.7678833,-0.2263794
-0.44677734,-1.7322388,-0.023010254
0.56469727,-1.2168579,0.0018920898
0.21313477,-0.9981079,-0.058166504
-0.072509766,-0.87994385,-0.08087158
0.0031738281,-0.647522,-0.1404419
-0.17578125,-0.68536377,0.03704834
-0.0014648438,-0.79937744,0.039489746
0.2866211,-0.9985962,0.070007324
-0.12060547,-1.538147,-0.5549927
-0.28735352,-0.84747314,0.25994873
-0.044189453,-0.8887329,-0.15118408
-0.13891602,-1.0344849,-0.013244629
-0.11450195,-0.71881104,-0.015686035
-0.1586914,-0.5647583,-0.18341064
-0.22875977,-0.6367798,-0.0037231445
0.18139648,-0.55352783,-0.12994385
0.50634766,-1.3638306,-0.35430908
-0.103759766,-1.1970825,-0.05206299
-0.091796875,-1.0366821,-0.11456299
-0.12866211,-0.9607544,-0.058898926
-0.04321289,-0.9483032,-0.028381348
-0.1459961,-0.7415161,-0.0029907227
-0.044189453,-0.4837036,-0.13726807
-0.2854004,-0.9692993,0.10369873
-0.10473633,-1.3504028,-0.46710205
0.012939453,-1.258606,-0.2612915
-0.18115234,-1.0818481,-0.11480713
-0.10424805,-0.86016846,-0.055236816
-0.20922852,-0.92974854,-0.08648682
-0.1586914,-0.61187744,0.08001709
-0.08618164,-0.51934814,-0.0029907227
0.052734375,-0.78912354,0.030212402
0.10571289,-1.5564575,-0.270813
0.20996094,-1.3635864,-0.18218994
-0.23388672,-1.2886353,-0.03741455
-0.0690918,-0.71295166,-0.046447754
-0.030273438,-0.614563,0.078552246
-0.14331055,-0.60601807,0.035827637
0.103759766,-0.73931885,0.035583496
-0.5131836,-1.8460083,-0.5618286
-0.034423828,-0.94415283,0.16156006
0.12915039,-0.85528564,-0.26397705
-0.1484375,-1.0232544,-0.04425049
-0.12670898,-0.77593994,0.0680542
-0.24194336,-0.57354736,0.109558105
-0.25830078,-0.82403564,0.105895996
-0.016601562,-0.87677,-0.18487549
-0.26635742,-0.8088989,-0.11187744
-0.07885742,-0.4295044,0.006286621
-0.25756836,-0.5198364,0.09637451
-0.022949219,-1.1487427,-0.4356079
0.11328125,-1.8552856,0.3324585
-0.033691406,-1.1243286,0.03265381
0.03564453,-0.67559814,-0.0869751
-0.06762695,-0.88604736,0.001159668
-0.022949219,-0.678772,0.03656006
-0.005126953,-0.6929321,-0.08258057
0.6152344,-1.4963989,0.23284912
-0.18896484,-1.0376587,-0.4102173
-0.7651367,-1.5471802,-0.047180176
-0.021728516,-0.88360596,-0.28155518
-0.18579102,-0.8152466,-0.14849854
-0.13769531,-0.8845825,-0.08135986
0.021484375,-0.62750244,-0.18658447
-0.35888672,-0.52301025,0.009460449
-0.21313477,-0.69976807,0.027526855
1.3186035,-1.3770142,-0.57159424
-1.048584,-1.7036743,0.0138549805
-0.11743164,-1.0911255,-0.10650635
-0.12719727,-0.7803345,-0.045959473
-0.16381836,-0.6567993,0.0770874
-0.030029297,-0.77423096,0.055847168
0.032714844,-0.5862427,-0.4277954
-0.40551758,-1.4429321,-0.1560669
-0.26611328,-1.958313,-0.32598877
-0.2993164,-1.487854,-0.08013916
-0.18945312,-0.92266846,0.039489746
-0.14086914,-0.8218384,-0.20904541
-0.1977539,-0.5708618,0.07904053
-0.2956543,-0.5874634,-0.13848877
-0.3544922,-1.0464478,-0.15142822
0.33911133,-1.0950317,-0.26983643
0.17480469,-2.0,0.15252686
-0.18676758,-1.0410767,0.053649902
0.025390625,-0.73321533,0.113464355
-0.14086914,-0.5581665,-0.051574707
-0.040283203,-0.5239868,0.04437256
-0.21289062,-0.8562622,-0.17779541
-0.05444336,-1.5237427,-0.17144775
-0.3322754,-1.435852,0.001159668
