accelX,accelY,accelZ
-0.9536133,-1.3067017,0.025817871
0.4104004,-1.4922485,-0.37286377
-0.4326172,-0.6470337,-0.2539673
0.008300781,-0.62213135,-0.20684814
-0.09643555,-1.3269653,-0.20587158
-0.3623047,-0.74884033,-0.07598877
-0.12231445,-0.9614868,-0.058166504
-0.30029297,-0.7720337,-0.06793213
-0.21069336,-0.80255127,-0.010070801
-0.36035156,-0.7883911,-0.0020141602
0.13671875,-1.1587524,-0.37750244
-0.015136719,-1.649231,0.15179443
0.050048828,-1.022522,-0.06402588
0.19360352,-0.8533325,0.024353027
0.08886719,-0.8032837,0.101501465
-0.06323242,-0.8064575,0.059753418
-0.0068359375,-0.86968994,0.16082764
0.114746094,-0.93292236,0.16668701
-0.140625,-0.53131104,-0.041809082
-0.14697266,-0.7786255,-0.20831299
0.13085938,-1.9624634,-0.17388916
-0.39892578,-1.2373657,-0.020568848
-0.0026855469,-1.067688,-0.17852783
-0.30517578,-0.7727661,-0.097961426
-0.064208984,-0.8389282,-0.06744385
-0.24365234,-0.9006958,0.032165527
-0.20532227,-0.82354736,-0.013244629
-0.27026367,-0.7427368,0.012878418
-0.19018555,-0.74346924,0.06561279
-0.125,-1.298645,0.035583496
0.3400879,-1.4851685,0.23919678
0.04296875,-1.131897,0.059753418
0.03881836,-0.8533325,0.014099121
0.08666992,-0.74102783,0.039978027
0.019042969,-1.0901489,0.13616943
0.033935547,-0.92071533,0.10467529
-0.032958984,-0.88165283,0.08001709
0.025390625,-0.9729614,0.2020874
-0.1418457,-0.75323486,0.10467529
-0.18066406,-0.9702759,0.18255615
0.032470703,-1.1133423,0.31732178
0.047851562,-0.315979,-0.10626221
0.010986328,-1.208313,-0.11456299
-0.62719727,-1.343811,-0.22027588
-0.33325195,-1.550354,-0.034973145
-0.26049805,-0.8604126,-0.018859863
-0.16040039,-0.68951416,-0.09136963
-0.19921875,-0.9590454,-0.058898926
-0.28076172,-0.9365845,0.026062012
-0.22875977,-0.90216064,0.019470215
-0.19165039,-0.77301025,0.0099487305
-0.31079102,-0.8452759,0.15081787
-0.30419922,-0.8257446,-0.11553955
0.4729004,-1.6550903,-0.015197754
-0.26123047,-1.4492798,0.01727295
0.0053710938,-0.9229126,-0.0017700195
-0.015380859,-0.71221924,0.040222168
-0.061523438,-0.9024048,0.06463623
-0.1184082,-0.9702759,0.08001709
-0.09838867,-0.94000244,0.16522217
-0.071777344,-0.7686157,0.054870605
-0.111816406,-0.60772705,0.04095459
-0.1862793,-0.59161377,-0.23590088
-0.0009765625,-2.0,-0.5606079
-0.63671875,-1.3491821,0.058044434
-0.064941406,-1.0935669,-0.25787354
-0.36376953,-0.54229736,-0.13531494
-0.1340332,-0.7625122,-0.1609497
-0.28515625,-0.9807739,-0.11016846
-0.45825195,-0.9656372,-0.06085205
-0.22216797,-0.6477661,0.038024902
-0.30297852,-0.78082275,0.035827637
-0.14770508,-1.3013306,-0.20758057
0.23950195,-1.3984985,0.18572998
-0.17114258,-1.1643677,-0.08087158
-0.088378906,-1.0811157,0.07122803
-0.1171875,-0.78302,0.062194824
-0.10131836,-0.8135376,0.11663818
-0.14501953,-0.8369751,0.16595459
-0.07519531,-0.74346924,0.08270264
-0.06201172,-0.7588501,0.13909912
-0.088378906,-1.0962524,0.09686279
-0.28930664,-1.1900024,-0.051574707
-0.30908203,-1.6021118,0.070739746
-0.41381836,-0.913147,0.07196045
-0.33764648,-0.8989868,0.01361084
-0.18579102,-0.7815552,0.034118652
-0.31933594,-0.7600708,0.05218506
-0.4260254,-0.73101807,0.15838623
-0.35131836,-0.88067627,0.17572021
-0.36816406,-0.6914673,0.18621826
-0.2783203,-0.71661377,-0.046691895
1.2304688,-2.0,-6.1035156e-05
-0.29614258,-1.736145,-0.15704346
0.103759766,-0.9902954,0.013122559
0.030517578,-0.72320557,0.057800293
-0.10180664,-0.7542114,0.02142334
0.00048828125,-0.9146118,0.07977295
-0.13208008,-0.90045166,0.11663818
-0.08227539,-0.87872314,0.14227295
-0.16821289,-0.95806885,0.15863037
-0.09887695,-0.9871216,0.31585693
-0.42456055,-1.098938,-0.11016846
0.36108398,-1.3543091,-0.23712158
-0.5378418,-1.0449829,-0.22515869
0.06323242,-1.0505981,-0.19415283
-0.25708008,-0.7449341,-0.15509033
-0.15429688,-0.8501587,-0.12017822
-0.2607422,-0.9212036,-0.12286377
-0.27124023,-0.9990845,-0.113586426
-0.25952148,-0.8364868,-0.06378174
-0.22363281,-0.925354,-0.062316895
-0.23706055,-1.0276489,0.032165527
-0.27929688,-0.5774536,0.055603027
-0.18774414,-0.8694458,-0.07891846
0.042236328,-1.6477661,0.0045776367
0.005859375,-1.3762817,0.0446167
-0.0063476562,-1.0234985,0.08001709
0.016113281,-0.8118286,0.0028686523
-0.005859375,-0.8755493,0.053649902
-0.020263672,-0.8880005,0.117614746
-0.072509766,-1.000061,0.1515503
-0.1628418,-0.9331665,0.13665771
-0.2055664,-0.94317627,0.19866943
-0.057128906,-0.861145,0.15032959
0.016845703,-0.5581665,-0.042541504
-0.05444336,-0.6140747,-0.13067627
0.18725586,-2.0,-0.3423462
-0.30249023,-1.4700317,0.09539795
-0.14160156,-0.92388916,-0.04034424
-0.16308594,-0.54278564,-0.15216064
-0.22753906,-1.0244751,-0.054992676
-0.26757812,-0.92144775,0.031188965
-0.42944336,-1.0161743,0.044128418
-0.25073242,-0.8201294,0.04071045
-0.20410156,-0.88604736,0.109802246
-0.11352539,-0.52056885,0.054138184
-0.028076172,-0.45391846,-0.0256958
0.82910156,-2.0,-0.074523926
-0.35546875,-1.8223267,-0.15240479
0.18017578,-0.8779907,0.11907959
-0.05053711,-0.35968018,-0.06817627
0.06640625,-0.8106079,0.08880615
-0.05102539,-1.1035767,0.08123779
-0.016113281,-0.92926025,0.10076904
-0.13891602,-1.1311646,0.18988037
-0.14794922,-0.71221924,-0.04425049
0.05102539,-0.27423096,0.0368042
0.19165039,-0.5405884,-0.2949829
-0.54174805,-1.6775513,-0.33648682
-0.39086914,-1.4070435,0.028259277
0.06640625,-0.6416626,-0.2420044
-0.2434082,-0.8154907,-0.09234619
-0.0078125,-0.7991333,-0.010803223
-0.2788086,-0.88653564,0.010437012
-0.23120117,-0.6255493,0.06561279
-0.17700195,-0.79351807,-0.031799316
-0.022460938,-1.4978638,-0.07476807
0.068115234,-1.4368286,0.16571045
0.018798828,-1.0982056,0.06878662
-0.0007324219,-0.7896118,0.031677246
0.030273438,-0.71759033,0.09466553
-0.072509766,-1.1201782,0.21697998
-0.10107422,-0.8093872,0.053894043
-0.04638672,-0.98638916,0.18865967
-0.13598633,-0.9163208,0.09246826
-0.08081055,-0.673645,0.074157715
-0.103271484,-0.5581665,-0.0010375977
-0.052734375,-0.85406494,-0.27056885
-0.5378418,-2.0,0.005065918
-0.12084961,-1.3526001,-0.03717041
-0.23168945,-0.673645,-0.09576416
-0.09716797,-0.6387329,-0.1338501
-0.19604492,-1.0203247,-0.05645752
-0.25,-1.0064087,0.003112793
-0.24536133,-0.80059814,-0.04815674
-0.23706055,-0.80596924,0.059020996
-0.16088867,-0.8648071,0.18084717
-0.13427734,-1.0930786,-0.121154785
0.12451172,-1.6345825,0.18060303
-0.06933594,-0.97857666,0.034851074
0.046142578,-0.92803955,0.10662842
0.059814453,-0.7168579,0.06732178
-0.018554688,-1.0144653,0.16497803
0.03955078,-0.9702759,0.11883545
-0.010009766,-0.9607544,0.12347412
-0.060302734,-0.9031372,0.1395874
-0.17211914,-0.8389282,0.13787842
-0.09375,-0.70562744,0.12445068
-0.061279297,-0.4932251,-0.0491333
0.061523438,-1.8772583,-0.04058838
-0.5654297,-1.4229126,-0.074523926
-0.09716797,-1.1621704,-0.0044555664
-0.26049805,-0.6206665,-0.11578369
-0.119628906,-0.6992798,-0.11212158
-0.15063477,-1.0288696,-0.05255127
-0.29882812,-0.83380127,0.010681152
-0.19433594,-0.7102661,0.105651855
-0.14819336,-0.8574829,-0.043029785
-0.013671875,-1.5164185,-0.10455322
-0.14282227,-1.3128052,0.05218506
-0.03173828,-1.0215454,0.101257324
0.08105469,-0.77301025,0.039001465
-0.0031738281,-0.91656494,0.11102295
-0.040283203,-0.8550415,0.09466553
-0.0043945312,-0.8740845,0.16644287
-0.059570312,-0.86138916,0.1281128
-0.055664062,-0.54278564,0.028503418
-0.34887695,-0.8753052,-0.27178955
-0.2368164,-2.0,-0.09283447
-0.43579102,-1.1704712,-0.078430176
-0.021728516,-0.9788208,-0.022521973
-0.22705078,-0.58721924,-0.06524658
-0.1459961,-1.0689087,-0.038635254
-0.17138672,-0.8670044,0.009460449
-0.22998047,-0.7876587,-0.0025024414
-0.31958008,-0.82696533,0.077819824
-0.17211914,-0.7678833,0.09637451
-0.2368164,-0.7505493,0.03778076
0.70092773,-2.0,0.45404053
-0.1550293,-1.2302856,-0.055236816
0.060546875,-0.9495239,0.13397217
-0.052734375,-0.5010376,0.07611084
0.009033203,-1.0671997,0.12957764
-0.048095703,-0.9990845,0.10272217
-0.061035156,-0.7625122,0.020690918
-0.12207031,-0.63897705,0.12982178
-0.10253906,-0.26983643,0.03729248
-0.09057617,-1.250061,-0.1651001
-0.5449219,-1.8440552,-0.4043579
-0.017333984,-1.576477,-0.066711426
-0.24511719,-0.24639893,-0.16046143
-0.07299805,-0.53790283,-0.06842041
-0.24121094,-1.0479126,-0.12579346
-0.203125,-0.9788208,0.074401855
-0.40942383,-1.1140747,0.090270996
-0.07104492,-0.8098755,0.051452637
-0.2487793,-0.7888794,0.12347412
-0.034423828,-0.9546509,-0.11773682
0.16577148,-1.3728638,0.22894287
-0.09838867,-1.0193481,0.07318115
0.029052734,-0.85284424,0.07147217
-0.036621094,-0.80010986,0.1293335
-0.048339844,-0.9932251,0.12640381
-0.13989258,-0.8545532,0.113220215
-0.051513672,-0.79278564,0.10687256
-0.046875,-0.83843994,0.25775146
-0.21069336,-0.7605591,-0.1873169
0.16796875,-2.0,-0.18145752
-0.48266602,-1.2454224,0.035827637
-0.18530273,-1.0703735,-0.097961426
-0.14282227,-0.64312744,-0.16217041
-0.18920898,-0.8936157,-0.07086182
-0.18164062,-0.94195557,-0.07550049
-0.21508789,-0.70758057,0.02947998
-0.19873047,-0.81817627,0.039245605
-0.076660156,-0.7427368,-0.08477783
0.053955078,-1.6519165,-0.24468994
-0.064208984,-1.4690552,0.06536865
0.017578125,-1.0681763,0.11175537
-0.08227539,-0.75787354,0.035583496
-0.041992188,-0.72979736,0.07684326
-0.07348633,-0.8291626,0.09173584
0.01171875,-0.8218384,0.09857178
-0.095703125,-0.6616821,0.05291748
-0.18017578,-0.57037354,-0.3086548
-0.28198242,-1.8369751,-0.105773926
-0.16333008,-1.3255005,-0.2612915
-0.26049805,-1.2319946,0.015808105
-0.14453125,-0.51397705,-0.20953369
-0.28271484,-0.85406494,-0.032043457
-0.1809082,-0.95098877,-0.15509033
-0.27246094,-0.8584595,0.0692749
-0.1550293,-0.677063,-0.018127441
-0.2854004,-0.83380127,0.07513428
-0.041992188,-1.206604,-0.1807251
-0.03540039,-1.586731,0.11029053
-0.15356445,-1.1463013,-0.024719238
0.052978516,-0.8296509,0.054870605
-0.111083984,-0.79229736,0.03387451
-0.15844727,-0.92633057,0.059753418
-0.06225586,-0.8862915,0.042663574
-0.079589844,-0.86016846,0.05609131
-0.091552734,-0.7112427,0.05731201
-0.23754883,-0.7317505,-0.054260254
-0.047851562,-1.37677,-0.21929932
-0.40356445,-1.3943481,-0.08843994
-0.32910156,-1.2861938,-0.030578613
-0.30810547,-0.90582275,-0.051330566
-0.09863281,-0.70977783,-0.09503174
-0.15795898,-0.9194946,-0.023742676
-0.22314453,-0.85821533,-0.008605957
-0.17456055,-0.7456665,0.062438965
-0.24121094,-0.70318604,0.07269287
-0.119384766,-0.94073486,0.029968262
0.26171875,-1.7949829,0.24481201
-0.028320312,-1.3059692,0.005554199
0.099121094,-0.8633423,0.10247803
0.0041503906,-0.69000244,0.017028809
0.01928711,-0.9360962,0.08905029
-0.0078125,-0.9194946,0.109313965
-0.037597656,-0.85479736,0.051208496
0.028808594,-0.6399536,0.014831543
-0.46264648,-0.7835083,-0.28399658
0.2487793,-2.0,-0.09698486
-0.4650879,-1.3599243,-0.15753174
-0.20678711,-1.2471313,-0.08111572
-0.18261719,-0.6314087,-0.06304932
-0.1484375,-0.7449341,-0.022033691
-0.20288086,-0.8147583,-0.04888916
-0.27124023,-0.7354126,0.09124756
-0.16723633,-0.76885986,-0.032043457
0.01953125,-1.5305786,-0.1519165
-0.057128906,-1.3901978,0.16522217
-0.052246094,-1.0852661,0.013122559
0.06713867,-0.89727783,0.070007324
-0.06713867,-0.7625122,0.097351074
-0.11206055,-0.74468994,0.042175293
-0.10913086,-0.78570557,0.06585693
-0.095458984,-0.78790283,0.2111206
-0.064208984,-1.0337524,0.004333496
0.05883789,-1.4434204,-0.23760986
-0.7595215,-1.4395142,-0.034240723
-0.020507812,-0.98443604,-0.07720947
-0.2849121,-0.7859497,-0.07965088
-0.15844727,-0.7991333,-0.046203613
-0.1538086,-0.83428955,-0.035461426
-0.3100586,-0.7803345,0.042907715
-0.11401367,-0.76812744,0.09661865
-0.25927734,-0.9902954,-0.020812988
0.111083984,-1.7883911,0.12689209
-0.14624023,-1.11969,0.043884277
0.0087890625,-1.0994263,0.20257568
-0.061279297,-0.7385864,0.030212402
-0.1496582,-0.8357544,0.097351074
-0.099365234,-0.7822876,0.08465576
0.015136719,-0.7346802,0.029724121
-0.28759766,-0.62335205,-0.11016846
0.12158203,-1.6026001,-0.175354
-0.7373047,-1.3513794,0.0053100586
-0.0859375,-1.2908325,0.07171631
-0.29760742,-0.68707275,-0.047180176
-0.049072266,-0.7371216,0.0060424805
-0.2512207,-0.68585205,-6.1035156e-05
-0.18408203,-0.51397705,0.085876465
-0.09887695,-1.0813599,0.04486084
0.028076172,-1.4658813,0.28826904
-0.060302734,-1.2842407,0.07342529
0.029052734,-0.75323486,0.014587402
-0.004638672,-0.7346802,0.08465576
-0.1105957,-0.8464966,0.08514404
-0.06933594,-1.0320435,0.16326904
-0.15112305,-0.5930786,0.0138549805
-0.12231445,-0.56329346,0.013366699
-0.1003418,-1.0217896,-0.04937744
-0.13354492,-1.4314575,-0.08843994
-0.39868164,-1.3823853,-0.06817627
-0.27392578,-1.2341919,-0.09625244
-0.24194336,-0.5803833,-0.1572876
-0.12011719,-0.84869385,-0.11456299
-0.25830078,-0.89849854,-0.13946533
-0.23608398,-1.0796509,-0.027404785
-0.26635742,-0.8284302,-0.07305908
-0.1652832,-0.7710571,0.02508545
-0.1862793,-0.6104126,0.06439209
-0.26098633,-1.1506958,-0.038146973
0.32055664,-1.8035278,0.023132324
-0.063964844,-1.2578735,-0.014221191
0.068847656,-0.82354736,0.048034668
0.03491211,-0.60650635,0.066101074
-0.0024414062,-1.0618286,0.13519287
0.055419922,-0.96051025,0.07342529
0.04272461,-0.94854736,0.12982178
-0.076660156,-0.81134033,0.14276123
-0.119140625,-0.64556885,0.053649902
-0.13012695,-0.40802002,-0.112854004
0.27001953,-1.6848755,-0.40264893
-0.5541992,-1.6465454,-0.21221924
-0.2043457,-1.2070923,-0.017150879
-0.20336914,-0.47369385,-0.19390869
-0.008544922,-0.739563,-0.12921143
-0.33618164,-1.0891724,-0.101379395
