accelX,accelY,accelZ
-0.3540039,-0.2144165,0.27288818
-0.47460938,-0.57647705,-0.19732666
0.071777344,-1.0342407,0.30169678
-0.50024414,-0.51104736,0.3475952
-0.5390625,-0.6296997,0.11981201
0.6364746,-2.0,1.3742065
-1.0488281,-1.0640259,0.2662964
-0.2861328,-0.17071533,0.22845459
0.47094727,-0.62628174,0.23699951
-0.14672852,-0.97198486,0.15203857
-0.52905273,-0.788147,0.4598999
-0.2902832,-0.5064087,0.13104248
-0.46850586,-1.3318481,0.34832764
-0.59887695,-2.0,0.06512451
-0.21679688,-0.6555786,0.39788818
-0.45825195,-0.15948486,-0.01739502
-0.3737793,-0.83551025,-0.024963379
-0.34521484,-0.41314697,-0.10626221
-0.12695312,-0.6670532,-0.0095825195
-0.22802734,-0.7505493,0.2633667
-0.6098633,-0.7312622,0.1786499
-0.33081055,-0.9846802,0.17547607
0.11767578,-2.0,0.73431396
-1.3867188,-0.88067627,0.38787842
0.043945312,-0.44439697,0.15545654
0.35131836,-0.6289673,0.21380615
-0.31640625,-0.83135986,0.27996826
-0.40014648,-0.57037354,0.3319702
-0.22998047,-0.9834595,0.07318115
-0.74731445,-2.0,0.5529175
-0.5463867,-0.90875244,0.2838745
-0.43969727,-0.550354,0.14666748
-0.12158203,-0.6189575,-0.11798096
-0.103027344,-0.8406372,0.13372803
-0.49023438,-0.47784424,0.17816162
-0.4663086,-0.6668091,-0.0635376
0.03173828,-0.80548096,0.007019043
-0.36376953,-0.7529907,-0.11138916
-0.43408203,-1.321106,0.40203857
-0.30493164,-0.5618286,0.039489746
-0.31347656,-0.8689575,-0.0947876
-0.21069336,-0.7114868,0.1786499
-0.45825195,-0.62091064,0.105163574
-0.41210938,-0.74176025,0.08856201
-0.33764648,-1.3826294,0.07733154
0.095703125,-1.4387817,0.15106201
-1.4147949,-0.80426025,0.3444214
0.1809082,-0.8088989,0.23699951
0.12866211,-0.6616821,0.008239746
-0.6320801,-0.58380127,0.21820068
-0.25732422,-0.8501587,0.3048706
-0.18676758,-1.6126099,0.031677246
-0.607666,-1.5908813,0.2555542
-0.47753906,-0.85235596,0.36883545
-0.37573242,-0.46343994,-0.0025024414
-0.22167969,-0.95928955,0.109313965
-0.15771484,-0.6477661,0.13421631
-0.5415039,-0.4907837,0.20574951
-0.37475586,-0.9470825,0.5319214
-0.32543945,-1.1377563,0.12738037
-0.08886719,-0.77008057,0.24041748
-0.39208984,-0.70391846,-0.061340332
-0.29077148,-1.678772,0.5844116
-0.27294922,-0.5618286,0.06976318
-0.49560547,-0.9175415,0.055847168
-0.22607422,-0.7468872,0.18328857
-0.17700195,-0.5796509,0.11053467
-0.47460938,-0.58258057,0.21478271
-0.48583984,-0.95318604,0.04437256
0.44140625,-2.0,0.17694092
-0.4399414,-1.0999146,0.16815186
-0.5090332,-0.30377197,-0.024475098
0.23266602,-0.6843872,0.35272217
-0.19116211,-0.94732666,0.10491943
-0.36645508,-0.4751587,0.14251709
-0.24707031,-0.68463135,0.41253662
-0.49365234,-1.128479,0.215271
-0.5461426,-2.0,0.22332764
-0.10058594,-1.0125122,0.25775146
-0.41918945,-0.14508057,0.22406006
-0.44580078,-0.98760986,-0.062805176
0.15527344,-0.8694458,0.28900146
-0.47338867,-0.47808838,0.21307373
-0.5827637,-0.5928345,0.2506714
-0.41064453,-0.7930298,0.32904053
-0.24169922,-0.90582275,0.061462402
-0.64160156,-2.0,0.3378296
-0.35253906,-0.96588135,0.3048706
-0.25878906,-0.30792236,0.20965576
-0.5078125,-0.68536377,-0.14971924
-0.049072266,-1.0623169,0.22161865
-0.37597656,-0.38970947,0.20379639
-0.5917969,-0.48980713,0.026062012
-0.083496094,-1.7842407,0.25775146
-0.49902344,-1.8425903,0.34246826
-1.0361328,-0.458313,0.0446167
0.16992188,-0.569397,0.168396
0.072753906,-0.960022,0.20037842
-0.69189453,-0.7854614,0.1720581
0.02709961,-0.5276489,0.21868896
-0.2697754,-0.80352783,0.17156982
-0.43774414,-1.6885376,0.2374878
-0.4958496,-1.3464966,0.10418701
-0.27368164,-0.57525635,0.34075928
-0.35009766,-0.45391846,-0.13702393
-0.36914062,-0.8098755,0.31951904
-0.22558594,-0.47906494,0.18865967
-0.36791992,-0.89312744,0.29364014
-0.29101562,-0.8718872,0.16864014
-0.42944336,-2.0,0.024108887
-0.41748047,-1.2232056,0.307312
-0.61621094,-0.48614502,0.3102417
-0.10473633,-0.74591064,-0.20147705
-0.34985352,-0.9348755,0.21478271
-0.4501953,-0.39190674,0.19818115
-0.5114746,-0.7246704,0.12322998
-0.27172852,-0.89630127,0.13812256
0.08105469,-2.0,0.5206909
-0.9638672,-1.0088501,0.38909912
-0.14233398,-0.57696533,0.21234131
-0.22070312,-0.42633057,-0.043273926
-0.2614746,-0.82281494,0.10467529
-0.33789062,-0.569397,0.26531982
-0.5175781,-0.6680298,0.04437256
0.09814453,-2.0,0.75897217
-0.55688477,-1.3823853,0.2855835
-0.5751953,-0.4282837,0.246521
0.17358398,-0.4866333,0.1383667
-0.11694336,-1.114563,0.2999878
-0.5012207,-0.5430298,0.39813232
-0.010986328,-0.45147705,0.101745605
-0.4033203,-2.0,0.29193115
-0.49780273,-1.593811,0.085632324
-0.23217773,-0.861145,0.34735107
-0.6520996,-0.56427,0.16741943
-0.12524414,-0.74346924,-0.03375244
-0.123046875,-0.7883911,0.30267334
-0.52368164,-0.34918213,0.19329834
-0.5161133,-0.89019775,0.010925293
0.27124023,-2.0,0.75823975
-0.74560547,-1.0401001,0.17303467
-0.31469727,-0.7112427,0.20306396
0.03491211,-0.41705322,0.09173584
-0.18115234,-0.8501587,0.18695068
-0.4597168,-0.835022,0.2531128
-0.1015625,-0.53912354,0.10662842
-0.5444336,-2.0,0.17645264
-0.36865234,-1.5193481,-0.15264893
-0.32080078,-0.78326416,0.3583374
-0.5119629,-0.55010986,0.09442139
-0.14013672,-0.9697876,-0.061584473
-0.20141602,-0.63482666,0.25042725
-0.6191406,-0.40899658,0.16595459
-0.3959961,-0.741272,0.03778076
0.25439453,-2.0,0.6442261
-0.58935547,-1.2637329,0.23895264
-0.5563965,-0.6170044,0.2506714
0.22973633,-0.5894165,0.26776123
-0.10058594,-0.803772,0.16937256
-0.34716797,-0.565979,0.25213623
-0.6784668,-0.6350708,0.13201904
0.08300781,-2.0,0.074645996
-0.34765625,-1.173645,0.18011475
-0.40649414,-0.89923096,-0.05230713
-0.20019531,-1.2715454,0.40203857
-0.34350586,-0.5774536,0.093444824
-0.4152832,-0.99102783,0.21136475
-0.19799805,-0.49468994,0.1281128
-0.24389648,-0.49761963,0.19403076
-0.6352539,-1.0388794,0.37591553
-0.27075195,-0.75982666,0.28118896
0.1381836,-2.0,0.69696045
-1.1176758,-0.8882446,0.4537964
-0.13500977,-0.3640747,0.25091553
0.08618164,-0.73809814,0.2921753
-0.2133789,-0.8977661,0.2411499
-0.4506836,-0.65802,0.18939209
-0.4375,-0.8040161,0.3678589
-0.45410156,-1.8064575,0.046569824
-0.4152832,-1.4053345,0.371521
-0.29296875,-0.30523682,0.27508545
-0.5480957,-0.45880127,-0.17901611
-0.050048828,-1.1074829,0.10443115
-0.40112305,-0.51446533,0.21429443
-0.53686523,-0.39068604,-0.0071411133
0.22094727,-2.0,0.64398193
-0.62475586,-1.1121216,0.23138428
-0.67626953,-0.31036377,0.06756592
0.28955078,-0.77545166,0.39398193
-0.23852539,-0.80352783,0.0914917
-0.5317383,-0.661438,0.34100342
-0.1105957,-0.71051025,0.35882568
-0.48120117,-1.8811646,0.15740967
-0.5083008,-1.1016235,0.018249512
-0.529541,-1.020813,0.50946045
-0.31884766,-0.37408447,0.02142334
-0.30615234,-0.9163208,0.17010498
-0.22241211,-0.67974854,0.14715576
-0.4189453,-0.41656494,0.21063232
-0.58251953,-0.8062134,0.21356201
-0.13085938,-1.3687134,0.34490967
-0.40844727,-1.8694458,0.5817261
-0.3708496,-0.70928955,0.2765503
-0.2331543,-0.39752197,-0.065979004
-0.2758789,-0.89971924,0.06414795
-0.28759766,-0.5335083,0.21697998
-0.5324707,-0.69000244,0.1293335
-0.32983398,-1.1165161,0.5126343
-0.5373535,-0.86798096,0.17645264
-0.036865234,-1.2354126,0.17327881
-0.16259766,-0.6067505,-0.034484863
-0.49804688,-1.3855591,0.2772827
-0.18066406,-0.63067627,0.1395874
-0.37109375,-0.7324829,-0.13189697
-0.1862793,-0.6555786,0.14569092
-0.47216797,-0.7630005,0.21917725
-0.40551758,-0.73272705,0.042175293
-0.16479492,-1.1345825,0.15716553
-0.07324219,-1.6279907,0.34246826
-1.1652832,-0.58966064,0.21624756
0.19580078,-0.6277466,0.17303467
-0.017822266,-0.7061157,0.23797607
-0.5305176,-0.71051025,0.19329834
-0.2175293,-0.83843994,0.38690186
-0.29614258,-1.062561,0.21234131
-0.72387695,-1.505188,0.35858154
-0.34594727,-1.0200806,0.2592163
-0.49560547,-0.7503052,0.26678467
-0.375,-0.7319946,0.1149292
-0.1706543,-0.8291626,0.26678467
-0.2055664,-0.7036743,0.17425537
-0.6435547,-0.63848877,0.2868042
-0.5437012,-0.85894775,0.307312
0.27416992,-2.0,0.5397339
-0.40185547,-1.2542114,0.20697021
-0.6948242,-0.45465088,0.28289795
-0.045166016,-2.0,0.71673584
-1.0393066,-0.79400635,0.113220215
0.008300781,-0.30303955,0.018981934
0.16308594,-0.5803833,0.31195068
-0.34692383,-0.7942505,0.16546631
-0.34570312,-0.7925415,0.10760498
-0.36010742,-1.8005981,0.18792725
-0.29467773,-1.3972778,0.0602417
-0.63061523,-0.7202759,0.37225342
-0.29345703,-0.5286255,-0.14263916
0.030029297,-0.80670166,0.048034668
-0.35131836,-0.6460571,0.18011475
-0.5834961,-0.34503174,0.1161499
-0.2434082,-1.3809204,0.113464355
-0.08203125,-1.5134888,0.2970581
-0.88549805,-1.0064087,0.55804443
-0.059326172,-0.27886963,0.03265381
0.17651367,-0.58721924,0.15692139
-0.3786621,-0.7876587,0.36639404
-0.42285156,-0.58477783,0.22503662
0.07470703,-2.0,0.07659912
-0.75878906,-1.4683228,0.21990967
-0.4465332,-0.4290161,0.52874756
-0.46240234,-0.55303955,0.015319824
-0.18920898,-0.8418579,-0.07696533
0.05126953,-0.7620239,0.28216553
-0.93774414,-0.50616455,0.21697998
-0.42871094,-0.80841064,0.024353027
0.484375,-2.0,0.6625366
-0.9736328,-1.0371704,0.39471436
-0.3322754,-0.19732666,-0.074035645
0.20996094,-0.7085571,0.19793701
-0.21557617,-0.9829712,0.13519287
-0.36132812,-0.71881104,0.11663818
-0.16796875,-0.6148071,0.26800537
-0.5361328,-1.5164185,0.10638428
-0.5354004,-1.6328735,-0.0491333
-0.17944336,-0.7456665,0.27166748
-0.36669922,-0.45806885,0.055603027
-0.39697266,-0.9163208,-0.09576416
0.027832031,-0.90216064,0.24945068
-0.5769043,-0.585022,0.15472412
-0.56274414,-0.61798096,0.1486206
0.033203125,-1.5361938,0.03338623
-0.30737305,-1.3565063,0.31756592
-0.33666992,-2.0,0.018737793
-0.49291992,-1.4185181,-0.031066895
-0.5876465,-0.6189575,0.37957764
-0.16088867,-0.38604736,-0.09893799
-0.13354492,-0.9849243,0.016540527
-0.38256836,-0.5183716,0.19598389
-0.53271484,-0.65948486,0.1605835
-0.52319336,-1.2346802,0.14813232
0.01977539,-2.0,0.711853
-0.95874023,-0.84259033,0.2802124
-0.35327148,-0.37677002,0.010925293
0.359375,-0.7984009,0.41033936
-0.25268555,-0.7251587,-0.003967285
-0.41845703,-0.7546997,0.2982788
-0.18237305,-0.55596924,0.16278076
-0.44995117,-1.9666138,0.026062012
-0.59643555,-1.7766724,-0.12628174
-0.24316406,-0.8189087,0.39154053
-0.40454102,-0.38482666,0.028503418
-0.22436523,-0.9817505,-0.07989502
-0.04736328,-0.57476807,0.31658936
-0.7150879,-0.54937744,0.11932373
-0.44067383,-0.7029419,0.08148193
0.33032227,-2.0,1.0629272
-0.97924805,-1.2078247,0.3114624
-0.3894043,-0.28961182,0.20281982
0.22802734,-0.62164307,0.22772217
-0.20141602,-0.86676025,0.14910889
-0.4807129,-0.706604,0.401062
-0.23266602,-0.6878052,0.25042725
-0.43920898,-1.8884888,0.31585693
-0.5395508,-1.3169556,0.14886475
-0.35375977,-0.9458618,0.4052124
-0.34399414,-0.48980713,-0.0022583008
-0.3918457,-0.74786377,0.03729248
-0.2421875,-0.79107666,0.2411499
-0.37231445,-0.49371338,0.14178467
-0.45092773,-0.831604,0.08660889
0.008544922,-1.8416138,0.23138428
-0.7109375,-1.3931274,0.33416748
-0.47851562,-0.7505493,0.16571045
0.20605469,-0.75909424,0.16156006
-0.16308594,-0.66973877,0.10272217
-0.45214844,-0.89971924,0.27947998
-0.15673828,-0.6902466,0.094177246
-0.28442383,-1.2488403,0.010925293
-0.4194336,-1.3638306,0.055114746
-0.60058594,-1.09552,0.27020264
-0.23486328,-0.5979614,0.040222168
-0.16821289,-0.52960205,-0.078186035
-0.27075195,-0.8567505,0.14935303
-0.49121094,-0.5952759,0.03363037
-0.29833984,-1.1550903,0.2518921
-0.15014648,-0.43902588,0.11541748
-0.625,-0.52301025,0.2753296
-0.4802246,-0.8911743,0.16033936
0.037597656,-1.2351685,0.3554077
-0.4645996,-1.5315552,0.1864624
-0.78930664,-0.5029907,0.42034912
-0.006591797,-0.41046143,0.17034912
0.083984375,-0.8479614,0.32781982
-0.45092773,-0.80718994,0.3270874
-0.3232422,-0.46392822,0.27264404
-0.52246094,-1.6062622,0.2453003
-0.28198242,-1.585022,0.11834717
-0.5283203,-0.8711548,0.3649292
-0.62939453,-0.38970947,0.1083374
-0.22729492,-0.76763916,-0.070129395
-0.099365234,-0.8562622,0.25360107
-0.5031738,-0.362854,0.17156982
-0.6352539,-0.59210205,0.11175537
0.28027344,-2.0,0.97454834
-0.6669922,-1.0791626,0.11053467
-0.46191406,-0.30499268,0.15496826
0.2084961,-0.8362427,0.3998413
-0.31103516,-0.7559204,0.027038574
-0.30419922,-0.5574341,0.21917725
-0.1652832,-0.7671509,0.28851318
-0.4489746,-2.0,-0.041809082
-0.4020996,-1.1245728,0.00091552734
-0.46435547,-0.8909302,0.34295654
-0.10131836,-0.5244751,0.1786499
0.1628418,-0.7932739,0.2850952
-0.45996094,-0.767395,0.25701904
-0.21606445,-0.5586548,0.2741089
-0.2175293,-0.8418579,0.10638428
-0.6364746,-1.6157837,0.44940186
-0.80200195,-1.5877075,0.038024902
-0.1743164,-0.5737915,0.45941162
-0.41601562,-0.62506104,-0.08770752
-0.3383789,-1.0151978,0.15667725
-0.1171875,-0.46783447,0.19232178
-0.7692871,-0.6074829,0.21722412
-0.4814453,-1.1755981,0.08709717
0.35424805,-2.0,0.58636475
-1.1516113,-0.8870239,0.4484253
