accelX,accelY,accelZ
-0.18017578,-0.8977661,0.06365967
-0.06640625,-0.6560669,-0.03277588
-0.11694336,-0.87384033,-0.0791626
-0.1262207,-0.66192627,-0.07598877
0.12475586,-1.6565552,0.07513428
0.21899414,-2.0,-0.21148682
-0.25,-0.43048096,-0.09869385
-0.00390625,-0.8257446,0.18963623
0.13671875,-1.0547485,-0.012512207
-0.045654297,-0.7300415,-0.006652832
-0.15258789,-1.0484009,-0.3711548
-0.1274414,-1.0166626,-0.22711182
0.17236328,-0.848938,-0.29937744
-0.3059082,-1.0772095,0.061706543
-0.08642578,-0.77545166,-0.11480713
-0.15576172,-0.7136841,-0.05645752
-0.20043945,-0.87579346,-0.04425049
0.119628906,-0.87701416,-0.1885376
-0.4111328,-1.3731079,0.07098389
0.23486328,-1.5286255,0.15863037
-0.14648438,-0.6914673,-0.014709473
-0.10473633,-0.6494751,0.08685303
0.0012207031,-0.65167236,0.010925293
-0.095458984,-0.940979,0.16351318
-0.23632812,-1.335022,-0.054992676
0.0056152344,-1.1287231,-0.43804932
-0.15966797,-1.0791626,-0.14337158
-0.087890625,-0.9138794,-0.014709473
-0.09399414,-0.7102661,-0.09210205
-0.2524414,-0.78302,0.058288574
-0.25097656,-0.84625244,0.05706787
-0.08129883,-0.7630005,-0.07305908
0.30493164,-1.0383911,-0.13970947
-0.47680664,-1.3550415,0.051452637
-0.11743164,-1.3713989,0.18572998
-0.057128906,-0.9714966,0.13470459
-0.048828125,-0.49395752,0.070007324
0.025146484,-0.6655884,0.018981934
-0.08496094,-1.0459595,0.10394287
-0.18481445,-0.9536743,0.21185303
-0.018066406,-1.2183228,-0.40093994
-0.8317871,-2.0,0.20770264
0.13305664,-0.58917236,0.003112793
-0.016845703,-0.848938,-0.07086182
-0.21948242,-0.95977783,-0.020812988
-0.10449219,-0.736145,-0.005432129
-0.1352539,-0.6626587,-0.020812988
-0.20092773,-0.8179321,0.035827637
0.47680664,-1.3980103,-0.25811768
-0.17700195,-1.2232056,-0.06719971
0.010498047,-1.1682739,0.14910889
-0.020996094,-0.881897,0.0680542
0.018066406,-0.74835205,-0.02520752
0.13061523,-0.8513794,0.038513184
0.13549805,-0.80596924,0.08831787
0.018310547,-0.9607544,0.06072998
-0.06591797,-0.97784424,0.17816162
-0.09887695,-0.9534302,-0.031799316
0.037841797,-1.2791138,-0.56256104
-0.05493164,-1.1524048,0.21160889
-0.18725586,-0.9607544,0.011169434
-0.1953125,-0.62579346,0.10369873
-0.26123047,-0.6958618,-0.0020141602
-0.36328125,-0.84820557,0.26190186
-0.64038086,-0.6758423,0.28338623
0.7397461,-2.0,-0.4578247
0.031982422,-2.0,0.14276123
-0.048339844,-1.0967407,-0.010314941
-0.103027344,-0.663147,0.184021
-0.14428711,-0.65289307,0.07562256
0.088134766,-0.8831177,0.16326904
-0.20874023,-1.0401001,0.105651855
0.41870117,-1.1548462,-0.50128174
-0.14672852,-1.435852,0.06561279
-0.015380859,-0.5388794,-0.06329346
0.059326172,-0.89630127,-0.09649658
-0.21142578,-0.704895,-0.12432861
-0.20361328,-0.6721802,0.009216309
-0.18115234,-0.8670044,-0.1494751
0.49072266,-1.1506958,-0.22076416
-0.1887207,-1.3970337,-0.28936768
0.13134766,-1.187561,0.11444092
-0.16845703,-0.65411377,0.14227295
0.04248047,-0.3928833,0.018249512
0.07836914,-1.0125122,0.02166748
-0.37158203,-1.442688,-0.2588501
-0.064208984,-0.98931885,-0.14508057
0.25341797,-1.3440552,-0.3171997
-0.17456055,-0.7817993,0.055114746
-0.040039062,-0.6465454,-0.15582275
-0.07128906,-0.7349243,-0.11651611
-0.19580078,-0.6494751,-0.016906738
0.044189453,-1.5730591,-0.1560669
0.06982422,-1.5757446,-0.00079345703
-0.016845703,-1.0813599,0.066101074
-0.005126953,-0.81915283,0.15911865
-0.041015625,-0.5881958,0.042419434
0.08325195,-0.78692627,0.04437256
-0.028808594,-0.9072876,0.00018310547
-0.30981445,-1.267395,0.3007202
-0.3708496,-0.928772,-0.058898926
0.18310547,-0.831604,-0.50567627
-0.019042969,-1.579895,-0.30010986
-0.38378906,-1.1047974,-0.031799316
-0.060302734,-0.5772095,-0.06524658
-0.2524414,-0.6626587,-0.09869385
-0.5185547,-1.1314087,-0.023010254
-0.2614746,-0.8674927,-0.10064697
0.8222656,-1.1243286,-0.47369385
-0.59594727,-1.3897095,-0.27667236
-0.17236328,-1.0840454,0.109802246
0.18920898,-0.46270752,-0.0020141602
-0.14770508,-0.6860962,0.08929443
-0.001953125,-0.5733032,0.01361084
0.19702148,-1.3096313,0.0040893555
-0.20385742,-0.84552,-0.36895752
-0.0625,-1.3484497,-0.43707275
-0.0546875,-0.9829712,0.024353027
-0.12475586,-0.913147,0.043884277
-0.013916016,-0.5964966,-0.085754395
-0.14941406,-0.65704346,0.026306152
-0.18139648,-0.7937622,-0.012756348
0.18945312,-0.8245239,-0.13775635
-0.18554688,-1.2124634,-0.27227783
0.14868164,-1.4717407,0.3139038
-0.22167969,-0.9397583,0.2670288
0.001953125,-0.63726807,0.055847168
-0.13500977,-0.6133423,0.15374756
-0.060302734,-0.9636841,0.081726074
-0.119140625,-0.8164673,0.035583496
0.12402344,-1.1411743,-0.55718994
-0.5539551,-1.6668091,-0.0012817383
-0.17382812,-1.0835571,-0.10699463
-0.053710938,-0.5701294,-0.11260986
-0.08886719,-0.6538696,-0.042541504
-0.21142578,-0.70806885,-0.039611816
-0.111816406,-0.82281494,-0.12261963
-0.28442383,-1.2781372,-0.1104126
0.18383789,-1.5025024,0.18035889
-0.19238281,-0.9866333,0.11151123
-0.021240234,-0.64019775,0.062927246
-0.1887207,-0.47833252,0.074401855
0.020507812,-1.0593872,0.10223389
-0.092285156,-1.211731,-0.019592285
-0.12231445,-0.8381958,-0.18829346
-0.07055664,-1.411438,-0.12286377
-0.23657227,-0.8831177,-0.0010375977
-0.072265625,-0.8179321,-0.10089111
-0.26098633,-0.8557739,-0.004699707
-0.036865234,-0.64971924,-0.061828613
-0.23706055,-0.73760986,0.018493652
-0.04663086,-0.81427,-0.12408447
0.11254883,-1.6362915,-0.13726807
-0.100097656,-1.18219,0.15814209
-0.10229492,-0.7036743,0.05316162
0.095703125,-0.5227661,-0.06402588
-0.009765625,-0.8555298,0.16326904
0.014892578,-0.6694946,-0.10211182
-0.11621094,-1.0496216,0.07977295
0.22338867,-1.3460083,-0.49786377
-0.67163086,-2.0,0.0067749023
-0.10205078,-0.42462158,0.3883667
-0.03491211,-0.76934814,-0.06915283
-0.28149414,-1.0252075,-0.0413208
-0.020263672,-0.6018677,0.105407715
-0.2578125,-0.72076416,-0.015197754
0.18676758,-1.0115356,-0.07208252
-0.25048828,-1.4639282,-0.009094238
0.47314453,-1.5735474,0.26849365
-0.11376953,-0.6963501,-0.062316895
-0.1508789,-0.44293213,0.1786499
0.01586914,-0.35601807,0.030456543
0.28442383,-1.479065,-0.11187744
-0.61938477,-1.185852,0.5477905
-0.03491211,-1.2090454,-0.36968994
-0.16259766,-1.2678833,0.04119873
0.014892578,-1.1638794,-0.23394775
0.06542969,-0.7359009,0.02166748
-0.26342773,-0.5064087,-0.04937744
-0.1928711,-0.80963135,-0.051574707
-0.35180664,-1.4172974,-0.014709473
-0.43066406,-1.0828247,0.27459717
0.4177246,-1.3196411,-0.39434814
0.4675293,-1.1338501,-0.17120361
-0.016357422,-0.9446411,-0.09649658
-0.009521484,-0.8430786,0.04144287
0.026611328,-0.6350708,-0.009094238
-0.12573242,-0.739563,0.17230225
0.060302734,-0.87384033,0.14642334
0.17089844,-1.0291138,0.07147217
0.0,-1.2051392,-0.2300415
-0.24560547,-1.0637817,-0.26617432
-0.01977539,-0.92681885,0.16204834
-0.060302734,-1.055481,-0.08746338
-0.2199707,-0.71051025,0.015808105
-0.08227539,-0.77178955,-0.10479736
-0.28515625,-0.81085205,0.08319092
-0.0546875,-0.71539307,-0.17120361
0.24560547,-1.722229,0.06048584
0.0009765625,-1.6004028,0.024108887
-0.033935547,-0.92926025,0.07928467
-0.049072266,-0.737854,0.1149292
-0.064697266,-0.5310669,0.07904053
0.118896484,-1.0127563,0.023376465
-0.051513672,-0.8430786,0.109558105
-0.13354492,-1.0110474,0.10076904
0.001953125,-1.149231,-0.41485596
-0.88793945,-1.9883423,0.16986084
-0.13623047,-1.0012817,-0.066711426
-0.03930664,-0.7305298,-0.07330322
-0.26245117,-0.75445557,0.093688965
-0.064453125,-0.6331177,-0.10479736
-0.24389648,-0.78131104,0.11126709
0.012451172,-0.5718384,-0.21539307
0.16381836,-1.8843384,-0.16485596
0.16601562,-1.56427,-0.14923096
-0.03491211,-0.9175415,0.059265137
0.040283203,-0.50860596,0.003112793
0.018798828,-0.7385864,0.13812256
-0.042236328,-0.9834595,0.036315918
-0.44604492,-1.2136841,0.35369873
-0.19750977,-1.2590942,0.06878662
0.48388672,-0.6177368,-0.628479
-0.23828125,-0.9649048,-0.09454346
0.26123047,-1.0532837,-0.17877197
-0.18896484,-0.90582275,-0.0635376
-0.052001953,-0.95562744,-0.14019775
-0.2241211,-0.9043579,-0.013977051
-0.28173828,-0.78985596,-0.030090332
-0.12402344,-0.7642212,0.019958496
-0.24926758,-0.8320923,0.070739746
0.0056152344,-0.7490845,-0.14190674
-0.030029297,-1.4832153,0.032409668
0.19677734,-1.7424927,-0.20684814
-0.39575195,-0.835022,0.097595215
0.08935547,-0.97052,0.14227295
-0.111572266,-0.4121704,-0.011047363
-0.04736328,-0.923645,0.15228271
-0.061035156,-0.8491821,0.22235107
-0.29345703,-1.6963501,-0.46148682
-0.42041016,-1.670227,-0.009094238
-0.00048828125,-0.87042236,-0.18804932
-0.057373047,-0.8464966,0.007019043
-0.2980957,-0.7710571,-0.0178833
-0.1508789,-0.91241455,-0.050354004
-0.25634766,-0.8591919,0.011413574
0.37426758,-1.1609497,-0.14483643
-0.48999023,-1.4121704,-0.0037231445
0.18359375,-1.36969,0.13519287
-0.1496582,-0.6265259,0.02557373
0.03857422,-0.7744751,0.117370605
0.059814453,-0.8987427,0.061950684
-0.07714844,-0.928772,0.06561279
-0.19311523,-0.9204712,-0.06964111
0.13256836,-1.0999146,-0.46759033
-0.60180664,-1.7722778,-0.046203613
-0.111816406,-1.1863403,0.039245605
-0.06274414,-0.5342407,-0.014709473
-0.13305664,-0.71661377,-0.08404541
-0.2368164,-0.76153564,0.018249512
-0.15405273,-0.8711548,-0.023742676
0.4255371,-1.2715454,-0.18170166
-0.3564453,-1.185852,-0.0960083
0.040771484,-1.1211548,0.29852295
-0.14379883,-0.741272,0.17401123
-0.022705078,-0.5725708,0.09051514
0.092041016,-0.7871704,0.04949951
0.04248047,-0.9758911,0.059509277
-0.110839844,-1.0049438,0.02142334
-0.06958008,-1.1245728,-0.24298096
-0.27807617,-0.8701782,0.13323975
-0.13793945,-1.1846313,0.11590576
-0.22753906,-0.66851807,-0.017150879
-0.036376953,-0.73883057,-0.10064697
-0.13989258,-0.66290283,-0.028625488
-0.22949219,-0.9470825,0.005554199
0.43676758,-1.3657837,-0.16900635
-0.27661133,-1.769104,-0.093811035
0.042236328,-0.9133911,0.08270264
-0.12451172,-0.80963135,0.17230225
-0.043701172,-0.55133057,0.03265381
0.022460938,-0.9187622,0.01361084
-0.011230469,-0.9558716,0.08831787
-0.20629883,-0.98809814,-0.00982666
-0.122802734,-1.1626587,-0.28790283
-0.37548828,-1.4024048,0.003112793
-0.12792969,-1.08844,-0.06402588
-0.032958984,-0.6543579,-0.034973145
-0.27270508,-0.7959595,0.027282715
-0.048339844,-0.6914673,-0.10064697
-0.044921875,-0.7107544,-0.13897705
0.2824707,-1.8416138,-0.012756348
-0.09399414,-1.953186,0.18182373
-0.0014648438,-1.2249146,-0.030334473
-0.016113281,-0.5679321,0.1281128
0.024414062,-0.6194458,0.105895996
-0.03540039,-0.8057251,0.14959717
-0.15307617,-1.3657837,0.03729248
-0.3762207,-0.99468994,0.28704834
0.028564453,-1.6370239,-0.1897583
-0.10424805,-0.63287354,-0.20318604
0.44506836,-1.1367798,-0.39312744
-0.107910156,-0.76104736,-0.16778564
0.0012207031,-0.9512329,-0.19952393
-0.1171875,-0.9077759,-0.1831665
-0.2097168,-0.86505127,-0.10089111
-0.24194336,-0.81695557,-0.050109863
-0.13208008,-1.019104,-0.05596924
-0.029785156,-0.5928345,-0.20245361
0.1394043,-1.6294556,-0.055725098
0.23413086,-1.1099243,-0.5767212
-0.08520508,-0.8045044,0.07562256
-0.14379883,-0.40118408,0.059265137
0.053222656,-1.0620728,-0.035705566
0.024169922,-0.927063,-0.1326294
-0.12524414,-1.3860474,-0.4993286
-0.6298828,-1.4231567,0.11932373
0.03515625,-0.9500122,-0.20196533
-0.02734375,-0.74713135,-0.03643799
-0.18188477,-0.89849854,-0.1296997
-0.11450195,-0.6663208,-0.02911377
-0.046142578,-0.8027954,-0.16265869
0.010986328,-0.77545166,-0.15264893
-0.1965332,-1.748352,0.0079956055
0.3737793,-1.5239868,-0.035949707
-0.21582031,-0.6712036,-0.051574707
0.10961914,-0.67193604,0.04925537
0.020751953,-0.6880493,0.06097412
0.08129883,-1.1809692,-0.14312744
-0.36157227,-0.7984009,-0.028137207
-0.14819336,-1.6741333,-0.61016846
-0.40234375,-1.4641724,-0.18682861
0.04296875,-0.77838135,-0.41607666
-0.122802734,-0.8447876,-0.17218018
-0.19189453,-0.756897,-0.17486572
-0.3095703,-0.94903564,-0.19317627
-0.3647461,-1.0772095,-0.21051025
-0.08129883,-1.1499634,-0.17755127
0.12524414,-0.94854736,-0.16998291
0.24536133,-0.8128052,-0.3069458
-0.21069336,-1.2561646,-0.2000122
0.045410156,-0.85357666,0.06756592
0.06616211,-0.9890747,0.0053100586
0.044677734,-0.89678955,0.01776123
0.038085938,-0.95513916,0.026306152
-0.025878906,-1.0466919,-0.018371582
-0.122558594,-0.9780884,0.07293701
-0.12011719,-0.9585571,0.049743652
0.47680664,-1.2571411,-0.8413696
-0.27783203,-0.8218384,0.14178467
0.114990234,-0.9849243,-0.08453369
-0.14941406,-0.9109497,-0.15679932
-0.028076172,-0.8262329,-0.16656494
-0.122558594,-0.7979126,-0.0051879883
-0.13623047,-0.8130493,-0.011291504
-0.24560547,-0.8496704,-0.023986816
0.115722656,-0.9175415,-0.15631104
-0.05493164,-1.5542603,-0.06573486
-0.103271484,-0.92193604,0.20135498
-0.037597656,-0.95269775,0.12225342
0.05029297,-0.6824341,0.06536865
-0.059326172,-0.67755127,0.078308105
0.0061035156,-0.9365845,0.06732178
-0.12524414,-0.9180298,0.21502686
-0.1652832,-1.4854126,-0.49761963
-0.6621094,-1.8718872,0.25946045
0.025878906,-0.59161377,0.070495605
-0.009277344,-0.7920532,-0.05596924
-0.3017578,-0.7571411,0.04949951
-0.3395996,-0.8599243,0.11004639
-0.11987305,-0.85650635,-0.117248535
0.39453125,-1.5213013,-0.024475098
-0.06640625,-1.3699341,-0.2432251
0.028564453,-0.8479614,0.1071167
-0.056396484,-0.68634033,0.15032959
-0.0075683594,-0.8411255,0.17889404
-0.046142578,-0.8491821,0.07342529
-0.022705078,-1.0437622,0.13934326
-0.3017578,-1.3206177,-0.26055908
-0.17944336,-1.1968384,-0.14093018
