accelX,accelY,accelZ
0.061035156,-1.0108032,0.21209717
-0.032958984,-1.003479,0.30755615
0.041503906,-0.9390259,0.32440186
-0.012451172,-0.9265747,0.30926514
-0.055908203,-0.7805786,0.30462646
-0.0048828125,-0.68756104,0.291687
0.1772461,-0.96466064,0.369812
0.036865234,-0.8855591,0.32659912
-0.06542969,-0.9624634,0.3937378
-0.16796875,-1.1704712,0.22381592
-0.07763672,-1.0574341,0.38934326
-0.18823242,-0.95880127,0.26068115
-0.025878906,-0.77301025,0.26605225
-0.14648438,-0.7390747,0.3048706
-0.10620117,-0.77838135,0.2850952
-0.05102539,-0.96539307,0.3842163
-0.052246094,-1.2493286,0.277771
0.08129883,-1.2241821,0.16497803
0.028564453,-1.3306274,0.40252686
-0.017822266,-0.77545166,0.33953857
0.016845703,-0.7349243,0.21502686
0.030273438,-0.65338135,0.3361206
0.039794922,-0.833313,0.25823975
-0.018554688,-1.0357056,0.35003662
-0.029785156,-1.3201294,0.10296631
0.021972656,-1.2039185,0.1605835
0.13720703,-1.0454712,0.18328857
0.017089844,-0.69732666,0.11151123
-0.049804688,-0.7192993,0.22137451
-0.08911133,-0.704895,0.32391357
-0.051757812,-0.8311157,0.25115967
0.09350586,-1.0523071,0.28826904
0.1171875,-1.5930786,0.11859131
-0.040039062,-1.2263794,0.45013428
0.009521484,-0.77471924,0.18890381
-0.026123047,-0.5371704,0.30194092
0.030273438,-0.642395,0.30633545
0.12133789,-0.9487915,0.27703857
-0.18115234,-1.1658325,0.3131714
-0.28735352,-1.3904419,0.35125732
-0.1340332,-1.1209106,0.53704834
-0.13549805,-0.7542114,0.2592163
-0.106933594,-0.6987915,0.19573975
-0.109375,-0.72491455,0.28533936
-0.14013672,-0.6333618,0.3156128
-0.029052734,-0.69073486,0.29144287
0.16992188,-1.4563599,0.06781006
0.12768555,-1.8828735,0.3595581
-0.015380859,-0.96832275,0.48309326
-0.022216797,-0.7576294,0.18426514
0.02758789,-0.6983032,0.28631592
-0.0036621094,-0.65704346,0.28729248
0.052246094,-0.90167236,0.3024292
0.018798828,-1.0942993,0.36419678
0.10449219,-1.4033813,0.07757568
-0.13452148,-1.2044067,0.3475952
0.08984375,-1.024231,0.27801514
-0.07446289,-0.75787354,0.11883545
-0.053710938,-0.8074341,0.17303467
-0.076171875,-0.66070557,0.28997803
-0.14648438,-0.72052,0.29608154
-0.063964844,-1.0303345,0.28460693
0.05053711,-1.097229,0.011657715
0.048095703,-1.3984985,0.3012085
-0.0036621094,-1.0557251,0.29803467
-0.007080078,-0.69488525,0.2164917
0.017822266,-0.71173096,0.293396
0.015625,-1.0591431,0.1671753
0.04296875,-0.70880127,0.25604248
0.018310547,-0.8179321,0.17108154
-0.0146484375,-0.5784302,0.23431396
0.049072266,-0.7617798,0.26409912
-0.01586914,-0.9595337,0.41131592
-0.061279297,-1.2930298,0.15863037
0.0073242188,-1.5007935,0.29656982
-0.014160156,-0.9768677,0.3571167
-0.018066406,-0.87823486,0.10687256
0.019042969,-0.6773071,0.1852417
-0.06567383,-0.7251587,0.25091553
-0.06567383,-0.88360596,0.3036499
-0.030517578,-1.0418091,0.3451538
0.24267578,-1.3313599,0.1329956
-0.08886719,-1.1558228,0.34539795
0.07104492,-0.9915161,0.22406006
-0.01586914,-0.71710205,0.2177124
0.02319336,-1.1570435,0.16400146
-0.0087890625,-0.8670044,0.20672607
-0.103515625,-0.90289307,0.21575928
-0.009277344,-0.75494385,0.17401123
-0.17602539,-0.6133423,0.3319702
-0.17382812,-0.7581177,0.29022217
-0.079589844,-0.8911743,0.49847412
0.19799805,-1.3352661,0.13397217
0.0053710938,-1.5437622,0.46136475
-0.08325195,-0.7151489,0.34100342
-0.0043945312,-0.68292236,0.13739014
-0.011474609,-0.62286377,0.33221436
-0.01928711,-0.7605591,0.30023193
-0.12207031,-1.1047974,0.29925537
0.13085938,-1.2322388,0.15350342
0.0012207031,-1.2852173,0.24188232
0.009765625,-0.9866333,0.35858154
-0.08520508,-0.83551025,0.1359253
-0.064453125,-0.6939087,0.21600342
-0.046142578,-0.67852783,0.23114014
-0.08154297,-0.7798462,0.36517334
0.031982422,-0.92681885,0.50286865
0.119628906,-1.3313599,0.13568115
0.099609375,-1.3997192,0.27972412
-0.10864258,-0.77056885,0.30462646
-0.018310547,-0.68829346,0.2111206
-0.011962891,-0.6338501,0.33441162
-0.029052734,-0.79766846,0.3678589
0.14404297,-1.0237427,0.3632202
-0.043945312,-1.2459106,0.09686279
-0.118896484,-1.390686,0.33514404
-0.021728516,-1.0945435,0.37371826
-0.16796875,-0.76153564,0.230896
-0.09643555,-0.75445557,0.15106201
-0.08691406,-0.6663208,0.26409912
-0.18188477,-0.86602783,0.41986084
-0.10424805,-0.8777466,0.36541748
0.035888672,-1.159729,0.10882568
-0.026123047,-1.7302856,0.41400146
-0.052978516,-0.802063,0.44329834
-0.020507812,-0.6682739,0.18255615
-0.059326172,-0.63848877,0.29656982
0.045166016,-0.82354736,0.3427124
0.06933594,-1.0652466,0.3463745
-0.07470703,-1.3772583,0.12176514
-0.018310547,-1.4439087,0.25360107
-0.08276367,-1.0557251,0.45062256
-0.07739258,-0.7112427,0.20428467
-0.037353516,-0.75128174,0.1798706
-0.09399414,-0.73687744,0.354187
-0.13623047,-0.8130493,0.4081421
0.02734375,-1.4290161,0.2477417
0.048583984,-1.3032837,0.24432373
-0.052246094,-1.0244751,0.41619873
0.022705078,-0.7346802,0.32122803
-0.020996094,-0.7156372,0.2597046
-0.016357422,-0.75177,0.22991943
0.0793457,-0.8882446,0.3222046
0.0017089844,-1.0298462,0.2921753
0.041015625,-1.093811,0.112976074
-0.06933594,-1.298645,0.26190186
-0.107177734,-1.0239868,0.39935303
-0.072265625,-0.7473755,0.2531128
-0.030761719,-0.78619385,0.2645874
0.021972656,-0.7415161,0.26116943
0.0041503906,-0.82891846,0.28240967
-0.0690918,-0.9402466,0.40740967
0.04321289,-1.0293579,0.2831421
0.017822266,-0.87506104,0.26849365
0.047851562,-0.87579346,0.2399292
0.004638672,-0.75372314,0.2387085
-0.011230469,-0.6392212,0.21600342
-0.037353516,-0.7490845,0.2711792
-0.08911133,-0.8352661,0.35443115
0.19360352,-1.3555298,-0.089416504
-0.14794922,-1.5083618,0.47991943
-0.07373047,-1.0769653,0.31854248
-0.10864258,-0.7920532,0.262146
-0.06713867,-0.6856079,0.246521
-0.092285156,-0.7263794,0.30560303
-0.13647461,-0.75982666,0.35076904
-0.08300781,-1.0369263,0.50897217
0.20996094,-1.2522583,0.019226074
0.010253906,-1.3755493,0.35516357
0.024414062,-0.82159424,0.33709717
-0.014404297,-0.7324829,0.18035889
-0.01953125,-0.65460205,0.3390503
0.08544922,-0.784729,0.22137451
0.013183594,-1.0056763,0.34954834
0.0690918,-1.0698853,0.046813965
0.057128906,-1.7544556,0.090270996
0.10107422,-1.041565,0.38323975
-0.09887695,-0.7949829,0.31195068
-0.0847168,-0.65411377,0.20306396
-0.12988281,-0.8128052,0.30828857
-0.033935547,-1.0274048,0.32781982
-0.0690918,-0.70391846,0.18914795
-0.052001953,-0.67266846,0.31781006
-0.080322266,-0.8171997,0.36395264
-0.14135742,-0.87628174,0.34906006
-0.07397461,-1.2075806,0.1618042
0.057861328,-1.5061646,0.2694702
-0.056884766,-1.2390747,0.4335327
0.019042969,-0.7112427,0.16448975
-0.0126953125,-0.6968384,0.24456787
0.010009766,-0.59039307,0.27020264
0.021484375,-0.9807739,0.36541748
0.11694336,-1.0552368,0.23309326
0.036621094,-1.1856079,0.09124756
-0.22998047,-1.4094849,0.33465576
-0.06640625,-0.9258423,0.28240967
-0.10888672,-0.72613525,0.22454834
-0.083984375,-0.8377075,0.199646
-0.14257812,-0.7583618,0.34710693
-0.07910156,-0.72906494,0.22235107
-0.12646484,-0.80670166,0.54315186
-0.013183594,-1.4341431,0.199646
-0.060058594,-1.1699829,0.25091553
-0.056640625,-1.2312622,0.37493896
-0.08666992,-0.8164673,0.34490967
-0.037841797,-0.6799927,0.22601318
-0.033203125,-0.6187134,0.36444092
0.0014648438,-0.83258057,0.19696045
-0.041503906,-1.0393677,0.37982178
0.05053711,-1.3689575,0.12176514
-0.05810547,-1.5420532,0.18060303
-0.14526367,-1.1035767,0.3842163
-0.079589844,-0.8154907,0.2772827
-0.07055664,-0.7227173,0.15985107
-0.10668945,-0.6589966,0.309021
-0.22827148,-0.8921509,0.3287964
-0.06958008,-1.071106,0.34344482
-0.080566406,-1.0462036,0.14324951
-0.04345703,-1.352356,0.33343506
-0.04248047,-1.0593872,0.3168335
-0.064208984,-0.72979736,0.29071045
-0.06274414,-0.7012329,0.34100342
0.017578125,-0.75079346,0.28216553
0.021972656,-0.87579346,0.30560303
-0.030517578,-1.0679321,0.3710327
-0.13867188,-1.0569458,0.3475952
0.072021484,-1.0498657,0.23822021
-0.10668945,-0.9859009,0.47479248
-0.041992188,-0.70806885,0.38616943
-0.021728516,-0.72320557,0.1642456
-0.20043945,-0.70391846,0.42010498
-0.12915039,-1.0708618,0.2855835
-0.059326172,-1.1690063,0.30267334
0.04711914,-1.3845825,0.3024292
-0.1105957,-0.94317627,0.35003662
0.053955078,-0.8049927,0.28631592
-0.010986328,-0.64923096,0.26605225
-0.1105957,-0.7786255,0.2748413
-0.03564453,-0.72491455,0.25701904
-0.088378906,-0.725647,0.37322998
-0.16113281,-0.8508911,0.43621826
0.013427734,-1.0178833,0.465271
0.10449219,-1.3640747,0.17596436
0.03857422,-1.272522,0.37371826
0.024658203,-0.8189087,0.30828857
-0.060791016,-0.62994385,0.1984253
-0.037841797,-0.694397,0.31097412
0.052246094,-0.9819946,0.4335327
-0.017822266,-1.0357056,0.4076538
-0.1694336,-1.156311,0.25360107
-0.14868164,-1.3274536,0.3348999
-0.1015625,-0.8875122,0.36273193
-0.103759766,-0.6995239,0.2921753
-0.09033203,-0.6375122,0.29608154
-0.21606445,-0.803772,0.42645264
-0.13354492,-0.9937134,0.38372803
-0.02368164,-1.1470337,0.11444092
-0.07739258,-1.2261353,0.38885498
-0.0061035156,-1.1082153,0.3060913
-0.056396484,-0.7312622,0.27630615
-0.0871582,-0.65411377,0.35980225
-0.01586914,-0.88287354,0.33050537
0.035888672,-1.2246704,0.29510498
-0.036865234,-1.3743286,0.10028076
-0.00390625,-1.3377075,0.19329834
-0.1262207,-1.0193481,0.27166748
-0.057128906,-0.8772583,0.23382568
-0.037597656,-0.710022,0.20281982
-0.020996094,-0.5039673,0.3217163
-0.025390625,-0.9837036,0.27459717
0.064941406,-1.0996704,0.4718628
-0.11206055,-1.109436,0.005554199
-0.12670898,-1.0737915,0.3546753
-0.048339844,-0.9480591,0.14422607
-0.1340332,-0.7554321,0.28900146
-0.10864258,-0.69488525,0.1437378
-0.107910156,-0.6421509,0.31097412
-0.2758789,-0.819397,0.25506592
0.052978516,-1.3787231,0.08465576
0.021484375,-1.9727173,0.2723999
-0.17358398,-1.0786743,0.4232788
-0.040283203,-0.6038208,0.246521
0.022949219,-0.5720825,0.19915771
-0.04663086,-0.6289673,0.32025146
-0.020263672,-0.90289307,0.38006592
-0.12084961,-1.4370728,0.17034912
-0.047607422,-1.3423462,0.17962646
-0.049804688,-1.071106,0.2699585
-0.119140625,-0.7542114,0.2958374
-0.095458984,-0.66241455,0.15618896
-0.10058594,-0.661438,0.3619995
-0.16918945,-0.83013916,0.36395264
0.018066406,-1.0408325,0.3583374
0.080322266,-1.425354,0.1774292
-0.1081543,-1.2166138,0.42059326
-0.06323242,-0.75372314,0.30145264
0.009765625,-0.5991821,0.18060303
-0.006591797,-0.6370239,0.35931396
0.041259766,-0.84259033,0.33319092
-0.20800781,-1.1543579,0.47821045
-0.25634766,-1.3999634,0.27313232
-0.072021484,-1.239563,0.45159912
-0.038330078,-0.79815674,0.18572998
-0.14770508,-0.69854736,0.22406006
-0.14038086,-0.72052,0.30145264
-0.24072266,-0.74664307,0.338562
-0.03149414,-1.2305298,0.36932373
0.20288086,-1.3823853,0.13690186
0.05078125,-1.4487915,0.28289795
0.02709961,-0.6655884,0.2230835
0.0,-0.66485596,0.23577881
-0.091552734,-0.7127075,0.26678467
0.1628418,-0.93414307,0.31610107
0.061767578,-1.1460571,0.31976318
-0.3161621,-1.4988403,0.29681396
-0.061523438,-1.2376099,0.41619873
-0.056396484,-0.85772705,0.18011475
-0.059570312,-0.60406494,0.18621826
-0.119384766,-0.51934814,0.22845459
-0.2290039,-0.8386841,0.41278076
0.042236328,-1.1677856,0.34661865
0.038085938,-1.3135376,0.21307373
0.15551758,-1.4612427,0.30950928
0.011962891,-0.8591919,0.24359131
0.02734375,-0.81427,0.19793701
0.015625,-0.7202759,0.22650146
-0.007080078,-0.6345825,0.20257568
-0.021728516,-0.9981079,0.33514404
-0.059570312,-1.0662231,0.43963623
-0.24780273,-1.1484985,0.2579956
0.016113281,-1.1099243,0.35858154
-0.17553711,-0.67437744,0.16156006
-0.05444336,-0.73150635,0.25115967
0.02368164,-0.5081177,0.27825928
0.035888672,-0.9475708,0.22088623
0.045898438,-1.2039185,0.4491577
0.10839844,-1.3311157,-0.043029785
-0.16796875,-1.3269653,0.36346436
-0.057128906,-0.82818604,0.27874756
-0.036621094,-0.77471924,0.1305542
-0.119384766,-0.7341919,0.35662842
-0.20043945,-0.80963135,0.36053467
-0.1328125,-0.9116821,0.42181396
0.040283203,-1.234436,0.22332764
0.07519531,-1.3059692,0.1774292
0.043945312,-1.3098755,0.5404663
0.049316406,-0.72198486,0.19793701
-0.01977539,-0.5718384,0.2597046
0.01928711,-0.6848755,0.3475952
0.040527344,-0.8179321,0.13812256
-0.087402344,-0.68170166,0.24310303
-0.16455078,-0.85235596,0.2868042
-0.11206055,-1.0930786,0.21917725
0.22729492,-1.3582153,0.120788574
-0.05444336,-1.4412231,0.33807373
0.022705078,-0.9104614,0.27093506
0.045410156,-0.74468994,0.21502686
-0.0034179688,-0.6968384,0.32147217
0.017822266,-0.6338501,0.2230835
0.09277344,-0.92755127,0.23529053
-0.0925293,-1.1953735,0.3847046
-0.30395508,-1.3306274,0.26312256
0.061279297,-1.1965942,0.34661865
-0.10498047,-0.7815552,0.16693115
-0.061767578,-0.74664307,0.12176514
-0.18188477,-0.6758423,0.32391357
-0.19555664,-0.7671509,0.34881592
-0.083740234,-1.0007935,0.4003296
0.009521484,-1.2669067,0.011657715
0.021240234,-1.5518188,0.35614014
-0.088134766,-0.77227783,0.30584717
-0.03930664,-0.6460571,0.21429443
0.033691406,-0.66412354,0.18133545
0.018310547,-0.8413696,0.3932495
-0.05078125,-1.02594,0.31829834
-0.030761719,-1.2278442,0.13616943
-0.0063476562,-1.2456665,0.08074951
-0.17285156,-0.96759033,0.46209717
-0.08862305,-0.710022,0.24847412
-0.12915039,-0.7024536,0.21478271
