accelX,accelY,accelZ
-0.09790039,-0.9158325,0.39056396
0.021728516,-0.9085083,0.33709717
-0.27807617,-0.972229,0.67303467
0.21459961,-0.84625244,0.43206787
-0.26367188,-0.8521118,0.3866577
0.026611328,-0.7984009,0.44451904
-0.4038086,-0.83428955,0.2994995
-0.20410156,-0.61431885,0.3632202
-0.043701172,-0.9170532,0.4520874
-0.16918945,-1.0823364,0.33685303
0.18383789,-1.6729126,0.44256592
-0.17651367,-0.8623657,0.71307373
-0.31713867,-1.1704712,0.17718506
-0.16015625,-0.72906494,0.31951904
-0.21313477,-0.6904907,0.22723389
-0.1105957,-0.57891846,0.32196045
0.0061035156,-1.1934204,0.33709717
-0.39648438,-0.88946533,0.42401123
0.40795898,-1.2119751,0.5253296
-0.37939453,-1.2139282,0.4701538
0.16357422,-0.6721802,0.4196167
-0.06567383,-0.59698486,0.39520264
0.034179688,-0.6465454,0.35247803
-0.3232422,-0.7671509,0.39300537
-0.1706543,-0.97491455,0.4804077
0.38012695,-2.0,0.29534912
-0.5605469,-0.91119385,0.73553467
0.33862305,-1.0813599,0.5114136
-0.2241211,-0.7136841,0.26239014
0.13598633,-0.7564087,0.28118896
-0.3713379,-0.7432251,0.2579956
0.08886719,-0.9663696,0.48846436
-0.22827148,-1.1340942,0.39520264
0.084228516,-1.4700317,0.6923218
0.35961914,-1.0205688,0.40203857
-0.1574707,-0.7041626,0.47650146
0.07861328,-0.7354126,0.3925171
-0.17456055,-0.98443604,0.44158936
0.052246094,-1.0010376,0.57025146
-0.36621094,-0.91070557,0.58221436
0.05883789,-1.1870728,0.35516357
0.011962891,-0.74468994,0.22332764
0.08618164,-1.3630981,0.34832764
-0.05053711,-0.62384033,0.28948975
-0.033447266,-1.0337524,0.29412842
-0.06298828,-0.81134033,0.25115967
-0.040527344,-0.40899658,0.23260498
-0.16821289,-0.7017212,0.3258667
0.020263672,-1.420227,0.3776245
0.34350586,-1.3777466,0.6898804
0.26782227,-1.2766724,0.30560303
-0.4699707,-0.39434814,0.10784912
0.14794922,-0.7139282,0.31414795
-0.33251953,-0.7022095,0.25115967
-0.09448242,-1.010315,0.40057373
0.0061035156,-1.6314087,0.26287842
0.30297852,-1.1143188,0.8410034
-0.8532715,-1.1265259,0.14569092
0.24169922,-0.3242798,0.14129639
-0.51708984,-0.9104614,0.3131714
0.25878906,-0.63848877,0.30633545
-0.30029297,-1.0940552,0.097351074
0.004638672,-1.3950806,0.76776123
0.010009766,-1.6069946,0.46917725
-0.5463867,-0.519104,0.1642456
0.18920898,-0.5413208,0.38763428
-0.13549805,-0.5845337,0.32196045
0.076416016,-0.88116455,0.2687378
-0.20678711,-1.3626099,0.41253662
0.3059082,-1.4736938,0.37127686
-0.5024414,-0.72076416,0.65423584
0.19189453,-0.9229126,0.15057373
-0.1809082,-0.67559814,0.20159912
-0.2163086,-0.61798096,0.16107178
0.010253906,-0.75982666,0.30023193
0.18041992,-1.8567505,0.49822998
0.23486328,-1.4077759,0.7592163
-0.4248047,-0.7930298,0.34954834
0.2446289,-0.48223877,0.28289795
-0.11254883,-0.7190552,0.32757568
-0.20654297,-0.63409424,0.23138428
-0.1484375,-1.2026978,0.4767456
-0.19140625,-1.1487427,0.2177124
-0.044921875,-2.0,0.1539917
-0.3540039,-0.46051025,0.35369873
0.2409668,-0.78131104,0.08074951
-0.52612305,-0.5869751,0.1083374
0.27148438,-0.8530884,0.28607178
-0.39624023,-0.9116821,0.12371826
0.5498047,-1.4754028,0.64520264
0.021240234,-1.7009888,0.29559326
-0.2277832,-0.60113525,0.3131714
0.07324219,-0.72320557,0.24798584
-0.061035156,-0.58966064,0.32513428
-0.2685547,-0.9014282,0.26556396
0.092285156,-1.315979,0.4557495
-0.1381836,-0.956604,0.24163818
-0.037841797,-1.49469,0.5343628
-0.029052734,-0.61016846,0.25091553
-0.09033203,-0.9727173,0.3102417
-0.20214844,-0.6470337,0.39007568
0.03149414,-0.9741821,0.39422607
-0.1484375,-1.2844849,0.5668335
0.015625,-1.175354,0.4430542
-0.34692383,-1.197815,0.5206909
0.11425781,-0.44708252,0.41937256
-0.10180664,-0.86383057,0.47357178
-0.052001953,-0.93170166,0.4472046
-0.34692383,-1.1460571,0.45770264
-0.20629883,-1.1265259,0.5734253
0.19702148,-0.9158325,0.10443115
0.0075683594,-1.1799927,0.4069214
-0.43164062,-0.75445557,0.2994995
0.08666992,-0.8977661,0.28875732
-0.16699219,-0.61309814,0.22845459
0.13671875,-0.69903564,0.34222412
-0.25976562,-0.93096924,0.35736084
-0.11010742,-1.1560669,0.44622803
0.17358398,-1.3731079,0.47698975
-0.4675293,-1.2681274,0.26385498
0.22924805,-0.6436157,0.44256592
-0.083984375,-0.4475708,0.2897339
-0.2607422,-0.59552,0.10369873
-0.009277344,-1.1533813,0.4869995
0.18774414,-1.3171997,0.4869995
-0.49853516,-1.4758911,0.07489014
0.00390625,-0.6499634,0.43304443
-0.037353516,-0.75177,0.1539917
-0.12011719,-0.7817993,0.22210693
0.033203125,-0.86016846,0.23602295
0.13623047,-1.1035767,0.38079834
-0.30395508,-1.3880005,0.69158936
0.014404297,-0.9998169,0.36419678
-0.0007324219,-0.81427,0.35980225
0.24707031,-0.45196533,0.28338623
-0.12963867,-0.8328247,0.4718628
-0.28637695,-0.9019165,0.41326904
-0.14819336,-0.9585571,0.5297241
0.119384766,-0.9348755,0.27191162
-0.34594727,-2.0,0.18865967
-0.29125977,-0.6567993,0.21453857
0.072265625,-0.8875122,0.35882568
-0.45092773,-0.73687744,0.2880249
0.19750977,-1.0532837,0.5023804
-0.5649414,-1.0391235,0.5219116
0.21557617,-1.3745728,0.3078003
-0.22998047,-0.51275635,0.16668701
0.40673828,-1.2432251,0.50042725
-0.15356445,-0.6392212,0.26531982
0.07421875,-0.8867798,0.3366089
-0.0009765625,-0.52911377,0.39349365
-0.33398438,-0.6013794,0.07342529
0.1899414,-0.9824829,0.5853882
-0.31225586,-1.6253052,0.215271
-0.08544922,-1.4129028,0.42718506
-0.09716797,-0.6514282,0.4821167
0.14233398,-0.69610596,0.18109131
-0.26586914,-0.7385864,0.2819214
0.014892578,-0.7151489,0.3168335
0.020996094,-1.3965454,0.3217163
-0.63061523,-1.5818481,0.64276123
0.123535156,-0.7346802,0.34124756
-0.18725586,-0.7698364,0.47235107
0.0053710938,-0.31427002,0.21453857
-0.45092773,-0.7647095,0.21575928
0.10888672,-0.85943604,0.39837646
-0.04248047,-1.8152466,0.2999878
-0.21679688,-1.380188,0.74261475
-0.39770508,-0.7774048,0.15350342
0.13061523,-0.62457275,0.2868042
-0.21850586,-0.54229736,0.15570068
-0.29052734,-1.1975708,0.5387573
0.27270508,-1.1358032,0.30804443
-0.5251465,-1.1096802,0.6715698
-0.16503906,-0.987854,0.27191162
-0.060058594,-0.5652466,0.4772339
-0.009033203,-0.46539307,0.3439331
-0.18920898,-0.6411743,0.28607178
0.068847656,-1.5232544,0.6029663
-0.09375,-1.1611938,0.2140503
-0.092285156,-1.248352,0.7247925
-0.029052734,-0.8574829,0.062683105
-0.16796875,-0.5130005,0.23040771
-0.27612305,-0.73272705,0.2543335
-0.091552734,-0.8826294,0.42816162
0.3359375,-1.7937622,0.32562256
-0.25805664,-1.5786743,0.5109253
0.049560547,-0.48492432,0.2831421
-0.16186523,-0.60528564,0.2958374
0.026123047,-0.64434814,0.33807373
-0.1081543,-0.95318604,0.3895874
-0.15478516,-1.1921997,0.34100342
-0.001953125,-0.97076416,0.2243042
-0.07885742,-1.6724243,0.4315796
-0.27001953,-0.7173462,0.24871826
0.024414062,-0.58966064,0.2880249
-0.37109375,-0.7192993,0.29144287
-0.06323242,-0.944397,0.3241577
0.2668457,-1.4314575,0.4557495
-0.060791016,-1.27594,0.73651123
-0.2734375,-0.8323364,0.4076538
-0.021728516,-0.68634033,0.3414917
-0.056640625,-0.39727783,0.26507568
-0.07885742,-0.9331665,0.42816162
0.013916016,-1.0237427,0.8156128
-0.46850586,-1.4212036,0.34613037
0.35595703,-1.0466919,0.35028076
-0.484375,-1.2647095,0.39276123
0.25073242,-0.7617798,0.31292725
-0.2746582,-0.7776489,0.30804443
-0.23364258,-0.97125244,0.41278076
-0.17773438,-0.90289307,0.45916748
-0.17333984,-1.2805786,0.63031006
0.24902344,-0.9192505,0.14520264
-0.19140625,-0.89312744,0.479187
0.048095703,-0.84942627,0.26141357
-0.08886719,-0.7647095,0.48553467
0.026123047,-0.5862427,0.34124756
-0.32641602,-0.56915283,0.3307495
0.064453125,-0.8657837,0.41278076
-0.30859375,-0.97052,0.3414917
0.48461914,-1.7627563,0.31878662
-0.2446289,-1.1675415,0.53656006
-0.35717773,-1.1472778,0.3505249
0.07910156,-0.34014893,0.15887451
-0.1628418,-0.7781372,0.25775146
-0.13696289,-0.9277954,0.5560913
-0.20947266,-1.0610962,0.25531006
-0.22509766,-1.3399048,0.51776123
0.2734375,-1.5269165,0.66815186
-0.35009766,-0.2654419,0.20013428
0.13354492,-0.862854,0.6234741
-0.26171875,-0.48980713,0.27557373
-0.011962891,-0.7131958,0.39593506
-0.24438477,-1.0349731,0.4303589
0.2734375,-1.6047974,0.41912842
-0.39819336,-1.0447388,0.3319702
0.15283203,-0.8909302,0.39300537
-0.23706055,-0.6148071,0.27142334
-0.28955078,-0.5923462,0.1954956
-0.1381836,-0.95513916,0.45892334
0.19555664,-1.0357056,0.46380615
-0.110839844,-1.5640259,0.3624878
-0.28466797,-0.9981079,0.1984253
-0.15356445,-0.6975708,0.32928467
0.28637695,-0.7769165,0.3842163
-0.21484375,-1.0305786,0.4977417
0.07519531,-0.96466064,0.5639038
0.10083008,-1.3130493,0.46258545
-0.2529297,-0.5918579,0.22161865
0.4025879,-1.5015259,0.3373413
-0.532959,-0.7359009,0.26654053
0.36083984,-0.88946533,0.2609253
-0.12060547,-0.81085205,0.27508545
-0.09838867,-0.65802,0.22332764
-0.2019043,-0.6687622,0.22113037
-0.18334961,-0.91973877,0.3085327
0.49609375,-1.4243774,0.5192261
0.012451172,-1.3494263,0.44281006
0.19726562,-0.7593384,0.45648193
-0.041992188,-0.52178955,0.28240967
-0.05493164,-0.4751587,0.28753662
-0.06982422,-0.8040161,0.39227295
-0.068603516,-1.1296997,0.4899292
0.23486328,-1.2605591,0.23162842
-0.6086426,-1.5942993,0.37322998
-0.22094727,-0.59332275,0.15814209
0.10473633,-0.89068604,0.24359131
-0.3149414,-0.473938,0.14935303
0.014892578,-0.91729736,0.39276123
-0.22802734,-0.90631104,0.18670654
0.15942383,-1.597229,0.555603
0.01928711,-1.616272,0.46209717
0.05859375,-0.4673462,0.39691162
-0.27368164,-0.7715454,0.277771
0.10571289,-0.4631958,0.33538818
-0.115478516,-0.9163208,0.3961792
-0.55029297,-1.4529419,0.17694092
0.17504883,-1.3757935,0.6469116
-0.10571289,-1.2334595,0.62957764
-0.02319336,-0.5215454,0.1593628
-0.07495117,-0.8064575,0.2531128
-0.21826172,-0.5689087,0.31829834
-0.2277832,-0.991272,0.24700928
0.25,-1.5054321,0.4076538
-0.06762695,-1.4609985,0.38446045
-0.026611328,-0.7642212,0.45159912
0.0073242188,-0.48223877,0.22772217
-0.056884766,-0.44073486,0.20843506
-0.033203125,-0.8814087,0.42596436
-0.30541992,-1.5303345,0.17181396
0.10107422,-1.2488403,0.70355225
0.10571289,-1.1502075,0.55584717
-0.15185547,-0.84381104,0.2189331
-0.07348633,-0.6514282,0.097351074
-0.21777344,-0.62506104,0.28900146
-0.21826172,-1.2583618,0.4845581
-0.0075683594,-1.2354126,0.5560913
-0.114990234,-1.0991821,0.50994873
0.08911133,-0.71954346,0.33514404
0.17822266,-0.69659424,0.37713623
-0.20947266,-0.505188,0.24700928
-0.05908203,-0.9192505,0.38519287
-0.20532227,-1.0093384,0.44866943
-0.16186523,-1.5801392,0.18719482
-0.059570312,-1.367981,0.64276123
-0.087646484,-0.74884033,0.25506592
-0.2529297,-0.68707275,0.3168335
-0.19433594,-0.6589966,0.22698975
-0.18847656,-0.9031372,0.5150757
-0.19848633,-1.029602,0.4706421
0.26171875,-1.6831665,0.34613037
-0.5852051,-1.2153931,0.35076904
0.25146484,-0.60284424,0.33392334
-0.018798828,-0.756897,0.47113037
0.03881836,-0.9456177,0.40350342
-0.09423828,-1.0137329,0.49432373
-0.45581055,-1.006897,0.4664917
0.55322266,-1.5457153,0.24627686
-0.5305176,-0.4505005,0.22015381
0.12988281,-1.3694458,0.17401123
-0.25439453,-0.69659424,0.21575928
0.03515625,-1.0037231,0.18670654
-0.118652344,-0.63360596,0.22235107
-0.16552734,-0.59210205,0.277771
0.05859375,-0.9981079,0.3048706
-0.07714844,-0.94488525,0.1671753
0.13354492,-1.600647,0.61053467
-0.3310547,-1.0796509,0.29632568
0.04345703,-0.85894775,0.3060913
-0.008056641,-0.4631958,0.24969482
-0.07519531,-0.5298462,0.26898193
-0.07788086,-1.0596313,0.27044678
-0.034179688,-1.185852,0.4315796
0.23071289,-1.326477,0.32244873
-0.4116211,-1.1897583,0.76434326
0.28344727,-0.97979736,0.15985107
-0.1743164,-0.6506958,0.22772217
-0.35107422,-0.6189575,0.13787842
0.25976562,-0.7710571,0.2687378
-0.015380859,-1.6992798,0.5067749
0.12817383,-1.203186,0.57073975
-0.37963867,-1.1296997,0.39959717
0.12646484,-0.71173096,0.29071045
0.07543945,-0.60528564,0.33880615
-0.13378906,-0.60821533,0.46380615
0.103515625,-1.0615845,0.34002686
-0.34692383,-1.036438,0.34539795
0.28930664,-1.59552,0.10223389
-0.13110352,-1.1958618,0.43060303
0.036132812,-0.956604,0.25115967
-0.11352539,-1.0015259,0.25946045
-0.13452148,-0.753479,0.26141357
0.061767578,-1.0430298,0.39544678
-0.29296875,-1.0679321,0.4857788
-0.013916016,-1.2210083,0.385437
0.38476562,-0.7070923,0.18670654
-0.17553711,-1.265686,0.43963623
0.028320312,-0.7420044,0.26727295
-0.09057617,-0.72320557,0.4159546
-0.025390625,-0.62677,0.25238037
-0.055419922,-0.6511841,0.41107178
-0.026611328,-0.9199829,0.3204956
-0.11645508,-1.2056274,0.40423584
0.012451172,-1.3862915,0.23138428
0.12109375,-1.3113403,0.6508179
-0.43310547,-0.7546997,0.25408936
0.18920898,-0.7288208,0.23382568
-0.19799805,-0.6135864,0.21600342
-0.31860352,-0.77789307,0.2975464
-0.0637207,-1.3311157,0.43914795
-0.033203125,-1.0130005,0.3751831
0.068603516,-1.289856,0.5805054
-0.06274414,-0.63726807,0.35101318
-0.05859375,-0.45635986,0.32781982
-0.35864258,-0.6621704,0.2753296
-0.009277344,-0.90045166,0.28094482
-0.15795898,-1.5322876,0.3678589
0.04711914,-1.1187134,0.26116943
0.01953125,-0.89801025,0.5001831
