accelX,accelY,accelZ
-0.4519043,-0.87628174,0.26263428
-0.43774414,-0.8428344999999999,0.25872803
-0.3815918,-0.7842406999999999,0.24603271
-0.40307617,-0.6704711999999999,0.24798584
-0.33520508,-0.7529906999999999,0.27337646
-0.39526367,-0.78375244,0.29852295
-0.3791504,-1.0518188,0.24383545
-0.6152344,-1.36969,0.08734131
-0.6586914,-1.0339966,0.34173584
-0.44213867,-0.74957275,0.07122803
-0.3149414,-0.6934204,0.16986084
-0.39794922,-0.394104,0.0499877929999999
-0.5744629,-0.8447876,0.19329834
-0.45092773,-0.59161377,0.22259521
-0.27539062,-1.281311,0.1876831
-0.6340332,-1.5337524,0.480896
-0.4892577999999999,-0.97442627,0.29852295
-0.17260742,-0.6567993000000001,0.26727295
-0.45483398,-0.7798461999999999,0.15618896
-0.48461914,-0.7139281999999999,0.18426514
-0.4296875,-0.83380127,0.1852417
-0.55615234,-0.80841064,0.29364014
-0.53637695,-0.81085205,0.30950928
-0.33398438,-0.9077759,-0.045959473
-0.52856445,-1.5925903,0.52215576
-0.46826172,-1.0484009,0.17596436
-0.31591797,-0.73443604,0.2958374
-0.29882812,-0.66192627,0.27581787
-0.17358398,-0.68292236,0.20721436
-0.3930664,-0.8040161,0.3143921
-0.3112793,-0.81207275,0.28851318
-0.5563965,-1.0171509,0.06097412
-0.8286133,-1.2471313,0.3373413
-0.36206055,-0.9578247,0.1019897459999999
-0.40893555,-0.6506958,0.066101074
-0.33935547,-0.7888794,0.078308105
-0.43676758,-0.7197876,0.031188965
-0.38061523,-0.6851195999999999,0.15692139
-0.37597656,-0.83258057,0.089782715
-0.43286133,-0.6055298000000001,0.19500732
-0.36206055,-1.4592896,0.0629272459999999
-0.79003906,-1.2942505,0.34075928
-0.24951172,-1.0996704,0.27215576
-0.2602539,-0.60113525,0.09466553
-0.29077148,-0.6494751,0.27142334
-0.22387695,-0.90997314,0.22772217
-0.44091797,-0.74957275,0.2345581
-0.24291992,-0.8352661,0.2597046
-0.6513671999999999,-1.0545044,0.0138549805
-0.7055664,-1.2620239,0.50653076
-0.51220703,-0.87677,0.16912842
-0.38476562,-0.6240845,0.23553467
-0.41186523,-0.66363525,0.19915771
-0.48828125,-0.66900635,0.18817139
-0.4267577999999999,-0.82598877,0.27996826
-0.45483398,-0.6782836999999999,0.29193115
-0.48657227,-1.357727,0.0680542
-0.59521484,-1.3096313,0.47943115
-0.3803710999999999,-1.0630493,0.22576904
-0.37060547,-0.6030884,0.27264404
-0.2944335999999999,-0.80426025,0.29681396
-0.30395508,-0.7727661,0.24847412
-0.36279297,-0.8472290000000001,0.3053589
-0.3569335999999999,-0.76934814,0.27020264
-0.4501952999999999,-0.9348755,0.18304443
-0.4272460999999999,-1.3789673,0.0848998999999999
-0.76123047,-0.9729614,0.35150146
-0.35058594,-0.71954346,0.17816162
-0.34350586,-0.612854,0.1564331
-0.39111328,-0.68096924,0.184021
-0.45703125,-0.76226807,0.23382568
-0.37060547,-0.77301025,0.184021
-0.2265625,-1.2366333,0.0914917
-0.68066406,-1.4104614,0.47235107
-0.37036133,-1.0237427,0.2423706
-0.35229492,-0.5510864000000001,0.15863037
-0.21606445,-0.7473755,0.26800537
-0.24316406,-0.68292236,0.18939209
-0.34155273,-0.83721924,0.28582764
-0.4375,-0.8953247,0.3241577
-0.7915039,-1.2886353000000002,-0.049621582
-0.68188477,-1.3313598999999998,0.434021
-0.41601562,-0.8784790000000001,0.07928467
-0.25976562,-0.6074829,0.12347412
-0.36694336,-0.6099243000000001,0.085632324
-0.34106445,-0.7605590999999999,0.1593628
-0.41601562,-0.68463135,0.18939209
-0.3947754,-0.64849854,0.18792725
-0.61987305,-0.68536377,0.27264404
-0.21899414,-0.8726195999999999,-0.31304932
-0.5070800999999999,-1.7991332999999998,0.42694092
-0.16748047,-1.1360473999999998,0.1395874
-0.58618164,-0.5425415,0.12005615
-0.18847656,-0.7810669,0.2230835
-0.29711914,-0.5647583,0.19281006
-0.123535156,-0.7637329,0.14910889
-0.32543945,-0.8196411,0.19989014
-0.47436523,-1.1902466,-0.06402588
-0.765625,-1.5696411,0.4052124
-0.6098633000000001,-0.94488525,0.18914795
-0.29614258,-0.44781494,0.15472412
-0.33325195,-0.65093994,0.06951904
-0.26171875,-0.5076294,0.19207764
-0.5258789,-0.614563,0.21600342
-0.33496094,-0.772522,0.29364014
-0.5864258000000001,-1.8999634,0.4677124
-0.76123047,-1.1672973999999998,0.23919678
-0.16430664,-0.9378052,0.19622803
-0.25610352,-0.4512329,0.22454834
-0.2602539,-0.65753174,0.22259521
-0.41088867,-0.67681885,0.3126831
-0.24414062,-0.9800415,0.3468627999999999
-0.8652344000000001,-1.3352661,0.1071167
-0.71875,-1.2769165,0.43328857
-0.24145508,-1.0432739,0.005065918
-0.5383300999999999,-0.44122314,0.30584717
-0.40673828,-0.7588501,0.1828003
-0.33325195,-0.6992798000000001,0.21966553
-0.34350586,-0.64630127,0.2177123999999999
-0.49194336,-0.7017211999999999,0.23822021
-0.5163574000000001,-1.3284302,0.17401123
-0.5986328000000001,-1.4778441999999998,0.4310912999999999
-0.5253906,-0.9260864,0.355896
-0.2434082,-0.5718384,0.12322998
-0.23217773,-0.63897705,0.2892456
-0.23168945,-0.65704346,0.20428467
-0.29907227,-0.8237915000000001,0.33416748
-0.5671387,-1.0203247,0.05731201
-0.9902344,-1.397522,0.30096436
-0.46411133,-1.1814575,0.15838623
-0.37890625,-0.60235596,0.15667725
-0.31176758,-0.6812134,0.09124756
-0.45874023,-0.663147,0.14300537
-0.38964844,-0.69317627,0.18621826
-0.41503906,-0.7920531999999999,0.15032959
-0.5500488,-1.2942505,0.02532959
-0.4050293,-1.5393677,0.22113037
-0.8059082,-0.9595337,0.22235107
-0.2368163999999999,-1.0283813,0.2741089
-0.29174805,-0.64263916,0.14813232
-0.33618164,-0.8189086999999999,0.2772827
-0.2861328,-0.8916626,0.20233154
-0.3791504,-0.7144165,0.26922607
-0.2602539,-0.6921997,0.28826904
-0.44580078,-0.739563,0.15228271
-0.4165039000000001,-2.0,0.17547607
-0.6965332,-1.0706177,0.32781982
-0.22192383,-0.9092407,-0.046936035
-0.36938477,-0.5576781999999999,0.10491943
-0.39331055,-0.5508423000000001,0.13787842
-0.421875,-0.6902465999999999,0.16937256
-0.3623047,-0.70147705,0.21282959
-0.3684082,-0.8977661,-0.011779785
-0.4140625,-2.0,0.40130615
-0.64697266,-0.99957275,0.08758545
-0.3762207,-0.7131958,0.27972412
-0.20483398,-0.65582275,0.21722412
-0.27612305,-0.66973877,0.14154053
-0.29541016,-0.72735596,0.21160889
-0.48706055,-0.82354736,0.2946167
-0.6081543,-1.4231566999999998,0.002380371
-0.8186035,-1.2368774,0.34246826
-0.31884766,-1.0369263000000002,0.08807373
-0.3581543,-0.5288695999999999,0.1864624
-0.22021484,-0.6489868000000001,0.14642334
-0.49951172,-0.6331177,0.21063232
-0.41796875,-0.7617798000000001,0.1876831
-0.42773438,-0.9619751,-0.035949707
-0.37597656,-1.611145,0.5458374
-0.37158203,-1.1243286,0.25994873
-0.45410156,-0.6362915,0.19085693
-0.10839844,-0.7424927,0.18548584
-0.39135742,-0.6946411,0.21331787
-0.1862792999999999,-0.83966064,0.27947998
-0.3791504,-0.7234497,0.3036499
-0.39404297,-1.2493286,-0.04107666
-0.767334,-1.413147,0.33270264
-0.30541992,-0.956604,0.11907959
-0.29516602,-0.56988525,0.054870605
-0.3552245999999999,-0.6218872,0.15374756
-0.52612305,-0.5779419,0.20404053
-0.44311523,-0.7190552,0.17816162
-0.40356445,-1.1399536,0.09832764
-0.529541,-1.6165161,0.39422607
-0.3720703,-0.97491455,0.10101318
-0.3635254,-0.66119385,0.20037842
-0.25268555,-0.72540283,0.12200928
-0.3803710999999999,-0.71881104,0.26776123
-0.22753906,-0.8652953999999999,0.2333373999999999
-0.23510742,-0.8123169,0.13665771
-0.22607422,-0.913147,0.13201904
-0.36645508,-0.8386841,0.21234131
-0.28759766,-0.84942627,0.22064209
-0.34375,-0.7185669,0.1984253
-0.24682617,-0.71661377,0.3102417
-0.38671875,-0.6748656999999999,0.22357178
-0.38549805,-0.895813,0.24066162
-0.657959,-1.727356,-0.14019775
-0.63305664,-1.2871704,0.3607788
-0.49951172,-1.0745239,0.066345215
-0.6303711,-0.76812744,0.12225342
-0.26049805,-0.7764281999999999,0.07196045
-0.4404297,-0.68585205,0.13104248
-0.40014648,-0.5064087,0.1083374
-0.44970703,-0.87091064,0.19940186
-0.54052734,-0.78863525,0.01727295
-0.34692383,-1.812561,0.008728027
-0.8786620999999999,-1.2566528,0.30804443
-0.23950195,-1.0352173,0.23553467
-0.33520508,-0.4932251,0.085632324
-0.25683594,-0.8386841,0.2682495
-0.2565918,-0.7930298000000001,0.13763428
-0.3515625,-0.72320557,0.25115967
-0.29223633,-0.80718994,0.29144287
-0.44091797,-1.0855103000000002,0.17474365
-0.53393555,-1.3521118,0.011657715
-0.50927734,-0.94366455,0.26263428
-0.26171875,-0.79473877,0.0028686523
-0.34399414,-0.7937622,0.07513428
-0.33935547,-0.7293090999999999,0.152771
-0.43188477,-0.57281494,0.12322998
-0.45776367,-0.802063,0.18719482
-0.46826172,-0.83599854,0.1749878
-0.3486328,-1.3189087,0.09637451
-0.5097656,-1.4573364,0.4850464
-0.36889648,-0.9678345,0.2453002999999999
-0.32055664,-0.67803955,0.199646
-0.26245117,-0.73931885,0.24920654
-0.22631836,-0.74664307,0.14154053
-0.31054688,-0.7041626,0.26409912
-0.34399414,-0.7173461999999999,0.2243041999999999
-0.44458008,-1.0032349,0.035095215
-0.44506836,-1.7024536,-0.014221191
-0.6604004,-1.1326294,0.23577881
-0.29077148,-0.88116455,0.045837402
-0.39331055,-0.70928955,0.08465576
-0.39282227,-0.7085570999999999,0.14178467
-0.43188477,-0.67266846,0.16448975
-0.4387207,-0.71954346,0.14398193
-0.5180664,-0.80474854,0.13275146
-0.33911133,-1.3755493,0.058532715
-0.8046875,-1.2605591,0.38763428
-0.2109375,-1.0803833,0.17889404
-0.43896484,-0.600647,0.1408081
-0.21044922,-0.7036743000000001,0.2218627999999999
-0.22241211,-0.8604126,0.15252686
-0.40576172,-0.7359009,0.26971436
-0.3486328,-0.8106079,0.3143921
-0.41552734,-0.9324341,0.12225342
-0.35009766,-1.5244751,-0.0003051757799999
-0.5395508000000001,-1.1321411,0.3131714
-0.37231445,-0.7737427,0.1019897459999999
-0.35107422,-0.7527465999999999,0.07733154
-0.39038086,-0.7383423000000001,0.14764404
-0.46435547,-0.67266846,0.16522217
-0.51000977,-0.68756104,0.23187256
-0.52734375,-0.80548096,0.24163818
-0.375,-1.6416626,0.28631592
-0.5107422,-1.3921509,0.32659912
-0.41674805,-0.8936156999999999,0.28167725
-0.2421875,-0.56695557,0.230896
-0.30151367,-0.62335205,0.2909546
-0.30810547,-0.7595824999999999,0.23284912
-0.3515625,-0.7583618000000001,0.4105835
-0.4970702999999999,-0.92803955,0.28533936
-0.7492675999999999,-1.1465454,0.28240967
-0.65356445,-1.2180786,0.49163818
-0.41601562,-0.7510376,0.2387085
-0.34985352,-0.694397,0.20037842
-0.4189452999999999,-0.76690674,0.26971436
-0.3293457,-0.678772,0.22088623
-0.41479492,-0.7444458,0.24920654
-0.36035156,-0.7390747,0.34417725
-0.3293457,-1.2544556,0.4237670999999999
-0.56103516,-1.4104614,0.20135498
-0.5185547,-0.8623656999999999,0.24407959
-0.24072266,-0.9092407,0.3114624
-0.3076172,-0.60040283,0.27850342
-0.3330078,-0.8328247,0.2321166999999999
-0.28344727,-0.82525635,0.19476318
-0.4802246,-0.741272,0.23651123
-0.1928711,-1.3279419,-0.1572876
-0.6213379,-1.4819946000000002,0.24505615
-0.50146484,-0.8015747,0.08758545
-0.22851562,-0.8467406999999999,0.043151855
-0.2758789,-0.6548461999999999,-0.124816895
-0.28759766,-0.41558838,0.06341553
-0.56347656,-1.5066528,0.01751709
-1.2182617,-2.0,0.36175537
-0.26416016,-0.74786377,0.07977295
-0.45751953,-0.67510986,0.15985107
-0.34838867,-0.6477661,0.12860107
-0.5,-0.8609009,0.1906128
-0.6166991999999999,-0.9678345,0.16546631
-0.2746582,-1.5078735,0.11907959
-0.62060547,-1.4163208,0.33099365
-0.44799805,-0.8399048000000001,0.18865967
-0.22607422,-0.7554320999999999,0.18231201
-0.3239745999999999,-0.60943604,0.20697021
-0.25756836,-0.91192627,0.19158936
-0.3203125,-0.64508057,0.21697998
-0.40698242,-0.71661377,0.22821045
-0.7956543,-1.440979,-0.11895752
-0.6767578000000001,-1.3721313,0.3949585
-0.4831543,-0.9846802,0.0770873999999999
-0.33569336,-0.6055298000000001,0.16033936
-0.3034668,-0.7300415,0.054870605
-0.4855957,-0.7251586999999999,0.17669678
-0.5214844,-0.7319945999999999,0.1828003
-0.43725586,-0.7427368000000001,0.2243041999999999
-0.6164550999999999,-0.8538208,0.17816162
-0.24169922,-1.4258423,0.0363159179999999
-0.6977539,-1.2527466,0.3534546
-0.3178710999999999,-1.0222778,0.20037842
-0.3774414,-0.59942627,0.12982178
-0.21484375,-0.75006104,0.21282959
-0.31640625,-0.80059814,0.20281982
-0.22949219,-0.59942627,0.25213623
-0.37695312,-0.76104736,0.21160889
-0.5722656,-1.2112427,-0.069885254
-0.654541,-1.4851685,0.16790771
-0.43774414,-1.0447388000000002,0.14642334
-0.3720703,-0.77667236,0.08343506
-0.26611328,-0.770813,0.0824584959999999
-0.39501953,-0.66973877,0.14984131
-0.44873047,-0.71832275,0.22137451
-0.40600586,-0.8250122,0.22894287
-0.41967773,-0.7703247,0.2074585
-0.24536133,-1.2380981000000002,0.18548584
-0.3166504,-1.4448853000000002,0.33685303
-0.44750977,-0.927063,0.12762451
-0.21435547,-0.940979,0.26385498
-0.35766602,-0.66290283,0.17010498
-0.28344727,-0.86968994,0.26287842
-0.33862305,-0.83917236,0.22918701
-0.27954102,-0.7896118000000001,0.2699585
-0.4567871,-0.80670166,0.31488037
-0.2919922,-1.0274048,-0.10699463
-0.421875,-1.5737915,-0.07598877
-0.64208984,-1.1633911,0.20306396
-0.4387207,-0.911438,-0.15411377
-0.3930664,-0.86920166,0.20184326
-0.34033203,-0.93585205,0.26434326
-0.36816406,-0.91119385,0.1942749
-0.4260254,-0.7686156999999999,0.23944092
-0.3972168,-0.67022705,0.3241577
-0.30249023,-0.7571411,0.27752686
-0.43310547,-0.6826781999999999,0.3571167
-0.41210938,-0.7102661,0.35638428
-0.6633300999999999,-1.2546997,-0.057922363
-0.6591796999999999,-1.4021606000000002,0.6063843000000001
-0.50561523,-1.1047973999999998,0.0980834959999999
-0.57250977,-0.77716064,0.27679443
-0.38891602,-0.7554320999999999,0.1786499
-0.43286133,-0.72857666,0.22332764
-0.45361328,-0.5552368000000001,0.19085693
-0.3935547,-0.7070923000000001,0.23944092
-0.45043945,-0.74053955,0.30169678
-0.3486328,-0.9614868,0.06854248
-0.5913086,-1.536438,0.39031982
-0.5324707,-1.123352,0.24407959
-0.30126953,-0.76519775,0.21820068
-0.24584961,-0.8648070999999999,0.20574951
-0.30151367,-0.91192627,0.24993896
-0.29760742,-0.91851807,0.22161865
-0.4020995999999999,-0.8467406999999999,0.29608154
-0.2939453,-0.7810669,0.22381592
-0.31835938,-0.7312622,0.2555542
-0.28515625,-0.8057251,0.30633545
-0.4345702999999999,-0.82354736,0.34490967
-0.4326172,-1.1482544,-0.07208252
-0.8083496,-1.2061157,0.29144287
-0.40698242,-1.0647583,0.09515381
-0.37890625,-0.7732544,0.15350342
-0.36816406,-0.81134033,0.12200928
-0.38964844,-0.7930298000000001,0.15570068
-0.46289062,-0.737854,0.1605835
-0.48608398,-0.7334595,0.23529053
-0.43847656,-0.72735596,0.25042725
-0.5227050999999999,-0.76348877,0.2477416999999999
