accelX,accelY,accelZ
-0.34423828,-0.89141846,0.18572998
-0.3725586,-0.8440552,0.21820068
-0.3232422,-0.71881104,0.16082764
-0.30541992,-0.6567993,0.19915771
-0.48046875,-0.75494385,0.24749756
-0.3720703,-1.2051392,0.13885498
0.106933594,-1.414856,0.4105835
-0.25854492,-1.1882935,-0.030090332
-0.25585938,-0.83062744,0.15960693
-0.13745117,-0.86016846,0.06488037
-0.15234375,-0.8713989,0.1942749
-0.18554688,-0.91241455,0.23358154
-0.13427734,-0.88726807,0.098083496
-0.19580078,-0.73516846,0.17327881
-0.2565918,-0.9102173,0.16693115
-0.28735352,-0.8557739,0.1461792
-0.34399414,-1.9436646,-0.17364502
-0.39697266,-0.9229126,0.18304443
-0.18823242,-1.0032349,-0.035217285
-0.27954102,-0.8621216,0.11956787
-0.28295898,-0.8508911,0.05999756
-0.25512695,-0.8057251,0.101501465
-0.25805664,-0.67193604,0.16351318
-0.31811523,-0.66119385,0.21087646
-0.36035156,-0.9805298,0.093933105
-0.012939453,-1.760315,0.21063232
-0.34594727,-1.0718384,0.0028686523
-0.29785156,-0.9871216,0.3270874
-0.27270508,-0.78131104,0.105895996
-0.18701172,-0.7839966,0.1786499
-0.2121582,-0.7654419,0.20184326
-0.18652344,-0.75787354,0.1671753
-0.24169922,-0.91363525,0.22991943
-0.43847656,-1.1380005,0.26190186
-0.35986328,-1.5271606,-0.12921143
-0.33984375,-1.0610962,0.33441162
-0.20922852,-0.87945557,0.039489746
-0.23095703,-0.79107666,0.09320068
-0.28100586,-0.83795166,0.059265137
-0.3449707,-0.74713135,0.23919678
-0.32299805,-0.5911255,0.11102295
-0.2446289,-0.83184814,0.054382324
0.088134766,-2.0,0.0004272461
-0.19335938,-1.1372681,0.047790527
-0.15136719,-1.09552,0.10809326
-0.24951172,-0.78570557,0.09197998
-0.15966797,-0.8369751,0.13934326
-0.24682617,-0.7937622,0.21063232
-0.22290039,-0.69659424,0.19012451
-0.22192383,-0.80133057,0.2567749
-0.2758789,-0.95098877,0.30462646
-0.37426758,-1.4724731,-0.043273926
-0.28710938,-1.0559692,0.25823975
-0.25219727,-0.94073486,0.24334717
-0.2553711,-0.7649536,0.09051514
-0.22924805,-0.8196411,0.11981201
-0.35546875,-0.74298096,0.3114624
-0.27954102,-0.6033325,0.2723999
-0.35424805,-0.76446533,0.24993896
-0.22216797,-1.3814087,0.16595459
-0.22509766,-1.4382935,0.47039795
-0.29882812,-1.1026001,0.050231934
-0.25,-0.7444458,0.23504639
-0.19897461,-0.7756958,0.16204834
-0.2614746,-0.85479736,0.28631592
-0.27539062,-0.78912354,0.2658081
-0.21459961,-0.6182251,0.15545654
-0.25390625,-0.8899536,0.23919678
-0.34057617,-1.4526978,0.0848999
-0.328125,-1.1504517,-0.04937744
-0.30395508,-1.2488403,0.230896
-0.22509766,-0.7581177,0.007751465
-0.2319336,-0.6902466,0.07513428
-0.27124023,-0.7930298,0.0914917
-0.34716797,-0.5498657,0.16033936
-0.2902832,-0.85943604,0.15594482
-0.44018555,-1.3255005,0.124694824
-0.13452148,-1.5278931,0.025817871
-0.32177734,-1.1812134,0.031677246
-0.18408203,-0.86968994,0.035095215
-0.23999023,-0.7234497,0.089782715
-0.19335938,-0.7666626,0.11004639
-0.22143555,-0.7124634,0.14642334
-0.2565918,-0.7998657,0.25457764
-0.26904297,-1.0723267,0.08758545
-0.45581055,-1.7346802,-0.17364502
-0.35009766,-1.0874634,0.33172607
-0.2536621,-0.88409424,0.14764404
-0.27148438,-0.7786255,0.10296631
-0.26782227,-0.78497314,0.08905029
-0.36791992,-0.597229,0.27801514
-0.30322266,-0.66363525,0.25482178
-0.35717773,-0.8081665,0.24725342
-0.05810547,-1.9238892,0.15472412
-0.20288086,-1.0579224,-0.0049438477
-0.23486328,-0.9619751,0.24603271
-0.23022461,-0.7288208,0.17181396
-0.2163086,-0.9212036,0.22991943
-0.23999023,-0.786438,0.25823975
-0.25024414,-0.6758423,0.22601318
-0.22558594,-0.7979126,0.22991943
-0.27661133,-0.9314575,0.2020874
-0.30419922,-1.3128052,-0.15924072
-0.35888672,-1.1133423,0.09906006
-0.22363281,-1.0508423,0.03363037
-0.26391602,-0.77301025,0.08416748
-0.25073242,-0.69073486,0.02923584
-0.3095703,-0.6951294,0.1281128
-0.35888672,-0.7437134,0.14813232
-0.3552246,-0.895813,0.15032959
0.091796875,-1.5054321,0.04144287
-0.32763672,-1.3584595,0.028747559
-0.19897461,-0.9612427,0.11419678
-0.16186523,-0.66070557,0.10296631
-0.16210938,-0.78570557,0.13616943
-0.2770996,-0.6699829,0.13641357
-0.119628906,-0.90509033,0.18353271
-0.2980957,-1.019104,0.13739014
-0.22753906,-1.2026978,-0.058166504
-0.28979492,-1.4004517,-0.04083252
-0.30517578,-0.944397,0.10736084
-0.16088867,-0.7788696,0.014343262
-0.24633789,-0.7058716,0.0026245117
-0.29956055,-0.6370239,0.13665771
-0.29003906,-0.9212036,0.18695068
-0.33642578,-0.8701782,0.11175537
0.02758789,-1.6228638,-0.054016113
-0.33007812,-1.1091919,0.014587402
-0.19238281,-1.062561,0.16522217
-0.26416016,-0.81427,0.094177246
-0.2097168,-0.81500244,0.15789795
-0.28027344,-0.73272705,0.21087646
-0.19995117,-0.61920166,0.15057373
-0.25219727,-1.0049438,0.16912842
-0.32714844,-1.3630981,0.04510498
-0.32080078,-1.2971802,-0.13653564
-0.30493164,-1.1658325,0.13031006
-0.22802734,-0.9417114,0.01776123
-0.234375,-0.7373657,0.06854248
-0.2163086,-0.7210083,0.07489014
-0.26391602,-0.6538696,0.12762451
-0.32739258,-0.8147583,0.15423584
-0.2524414,-1.3513794,0.039245605
-0.19897461,-1.3220825,0.30194092
-0.31567383,-1.0635376,0.05291748
-0.20605469,-0.8345337,0.23138428
-0.24804688,-0.7949829,0.117614746
-0.24316406,-0.7476196,0.22137451
-0.20410156,-0.56500244,0.090270996
-0.29174805,-1.1682739,0.34661865
-0.26049805,-1.2593384,0.14202881
-0.3959961,-1.2276001,-0.0020141602
-0.25024414,-1.0610962,0.15374756
-0.25976562,-0.85040283,0.11907959
-0.26049805,-0.82281494,-0.00982666
-0.2529297,-0.7546997,0.1408081
-0.28344727,-0.6851196,0.16009521
-0.38623047,-0.89630127,0.1630249
-0.17529297,-0.5256958,0.2333374
-0.16870117,-0.6243286,0.12664795
-0.22509766,-0.98516846,0.13079834
-0.25268555,-2.0,-0.4163208
-0.52490234,-0.909729,0.2662964
-0.075683594,-1.076477,-0.18365479
-0.15258789,-0.80596924,0.007019043
-0.20581055,-0.7217407,-0.035461426
-0.26171875,-0.64190674,0.025817871
-0.22338867,-0.61309814,0.09637451
-0.20825195,-0.92193604,-0.013244629
-0.07128906,-1.7407837,0.1227417
-0.29833984,-1.3762817,0.055603027
-0.24316406,-1.0427856,0.0758667
-0.17993164,-0.6921997,0.09051514
-0.18017578,-0.47491455,0.20159912
-0.13964844,-0.6712036,0.1437378
-0.25317383,-0.96588135,0.18939209
-0.39233398,-1.4631958,0.12835693
-0.2512207,-1.2803345,-0.035461426
-0.35717773,-1.1699829,0.23162842
-0.21777344,-0.8093872,-0.003479004
-0.18530273,-0.7000122,0.0993042
-0.26538086,-0.78009033,0.097595215
-0.28173828,-0.5964966,0.1774292
-0.36254883,-0.8242798,0.19329834
-0.2121582,-1.4229126,-0.027893066
-0.30859375,-1.4944458,0.20599365
-0.24975586,-1.192688,0.12884521
-0.23608398,-0.7839966,0.20526123
-0.16210938,-0.6836548,0.07928467
-0.21533203,-0.69415283,0.17694092
-0.20581055,-0.7246704,0.24188232
-0.2692871,-0.99786377,0.1630249
-0.28222656,-1.2922974,0.07659912
-0.40478516,-1.4702759,-0.17877197
-0.32250977,-1.1228638,0.09661865
-0.12207031,-0.8023071,-0.06304932
-0.19628906,-0.6983032,-0.011047363
-0.26782227,-0.68096924,0.11785889
-0.27807617,-0.7764282,0.113220215
-0.43115234,-0.93096924,0.16229248
-0.022216797,-1.555481,-0.13873291
-0.3046875,-1.2854614,0.0758667
-0.2565918,-1.2131958,0.08758545
-0.24511719,-0.7190552,0.12567139
-0.12133789,-0.65826416,0.0993042
-0.28100586,-0.64141846,0.1984253
-0.21777344,-0.8015747,0.17938232
-0.328125,-1.0496216,0.262146
-0.36157227,-1.609436,0.11541748
-0.28735352,-1.0757446,0.066833496
-0.23583984,-0.9661255,0.05633545
-0.18457031,-0.70880127,0.032409668
-0.19604492,-0.63653564,0.06781006
-0.31982422,-0.7354126,0.17034912
-0.31030273,-0.87091064,0.113220215
-0.3857422,-1.166565,0.08343506
-0.2121582,-1.6360474,0.20452881
-0.26220703,-1.041565,-0.018859863
-0.16259766,-0.86309814,0.15179443
-0.14013672,-0.6951294,0.07635498
-0.19042969,-0.72857666,0.12884521
-0.21142578,-0.6980591,0.12640381
-0.20458984,-0.90509033,0.17059326
-0.34716797,-1.3005981,-0.015197754
-0.21948242,-1.7417603,-0.32354736
-0.34204102,-1.0383911,0.19500732
-0.15209961,-0.7984009,-0.13458252
-0.21118164,-0.7329712,-0.010070801
-0.18579102,-0.77667236,-0.031555176
-0.35717773,-0.7815552,0.13104248
-0.29516602,-0.8621216,0.14227295
-0.111083984,-0.9717407,0.046569824
-0.14379883,-1.8442993,0.13934326
-0.28393555,-0.9241333,-0.0791626
-0.21142578,-0.9024048,0.21063232
-0.15600586,-0.6663208,0.046569824
-0.23706055,-0.565979,0.19403076
-0.22705078,-0.7798462,0.2453003
-0.28295898,-1.0535278,0.24700928
-0.27416992,-1.52594,-0.04425049
-0.37646484,-1.0742798,0.15911865
-0.25585938,-1.0835571,0.12322998
-0.26489258,-0.76641846,0.005554199
-0.20117188,-0.673645,0.05609131
-0.32714844,-0.5430298,0.15472412
-0.32885742,-0.8596802,0.24847412
-0.43530273,-0.9378052,0.20916748
-0.103515625,-2.0,0.093688965
-0.28198242,-1.0403442,-0.037902832
-0.18701172,-1.0344849,0.26068115
-0.16308594,-0.5454712,0.05657959
-0.21679688,-0.6448364,0.16351318
-0.24438477,-0.9248657,0.21722412
-0.2722168,-0.82818604,0.14324951
-0.29003906,-1.7935181,-0.07965088
-0.3828125,-1.237854,-0.0010375977
-0.24658203,-1.170227,0.0099487305
-0.21069336,-0.7329712,-0.022766113
-0.17358398,-0.68341064,0.006286621
-0.33276367,-0.65167236,0.121520996
-0.27929688,-0.7715454,0.13128662
-0.3671875,-0.8880005,0.09490967
0.061767578,-1.8682251,0.04925537
-0.3173828,-1.053772,0.046569824
-0.26293945,-1.097229,0.22698975
-0.25073242,-0.65704346,0.11175537
-0.19848633,-0.6878052,0.26556396
-0.19042969,-0.7090454,0.16766357
-0.26220703,-0.91363525,0.19647217
-0.33666992,-1.0071411,0.23529053
-0.19921875,-1.192688,-0.1506958
-0.26831055,-1.1853638,0.05999756
-0.29370117,-0.8953247,0.05291748
-0.18847656,-0.6646118,0.054382324
-0.22949219,-0.63116455,0.07196045
-0.2680664,-0.741272,0.15179443
-0.44921875,-0.93829346,0.1161499
-0.08886719,-1.515686,-0.09283447
-0.31811523,-1.2871704,-0.031066895
-0.19580078,-1.0689087,0.11248779
-0.29052734,-0.76226807,0.13446045
-0.18554688,-0.65411377,0.019226074
-0.29370117,-0.8045044,0.19158936
-0.15356445,-0.73516846,0.1942749
-0.27392578,-0.8953247,0.18231201
-0.39697266,-1.5696411,-0.19952393
-0.36547852,-1.0618286,0.21038818
-0.32617188,-0.9273071,0.051940918
-0.25756836,-0.7432251,0.08148193
-0.2331543,-0.6670532,0.0033569336
-0.2607422,-0.61505127,0.13568115
-0.4020996,-0.95098877,0.12420654
-0.39282227,-1.2466431,0.101501465
-0.08227539,-1.5435181,0.29266357
-0.28588867,-1.1272583,-0.016906738
-0.18139648,-0.83477783,0.105163574
-0.17041016,-0.7529907,0.08929443
-0.12792969,-0.6777954,0.16009521
-0.1640625,-0.76226807,0.1251831
-0.20800781,-1.0523071,0.045837402
-0.31079102,-1.2964478,-0.019104004
-0.056884766,-1.4168091,-0.20172119
-0.27294922,-1.2432251,0.17913818
-0.46118164,-0.91070557,0.066833496
-0.30908203,-0.9343872,0.18011475
-0.2763672,-0.7485962,0.066345215
-0.29614258,-0.68585205,0.10296631
-0.25317383,-0.5791626,0.13031006
-0.5029297,-0.78863525,0.1630249
-0.41259766,-1.4724731,-0.17120361
-0.037841797,-1.2056274,0.026794434
-0.18847656,-1.3311157,0.049987793
-0.25634766,-0.94122314,-0.0178833
-0.18334961,-0.64508057,0.077819824
-0.2006836,-0.60406494,0.20379639
-0.22436523,-0.7305298,0.17596436
-0.18774414,-0.89508057,0.17352295
-0.27026367,-1.4109497,0.0033569336
-0.41186523,-1.1257935,0.11785889
-0.21386719,-1.2544556,0.054870605
-0.27294922,-0.8189087,-0.02178955
-0.22387695,-0.76275635,0.05633545
-0.22241211,-0.7710571,0.039978027
-0.22924805,-0.58966064,0.17718506
-0.37231445,-0.8049927,0.13250732
-0.5036621,-1.0249634,0.14837646
-0.17260742,-1.7756958,0.09075928
-0.2902832,-1.0535278,0.05731201
-0.22949219,-1.1087036,0.14666748
-0.28198242,-0.79400635,0.050476074
-0.19970703,-0.74957275,0.1437378
-0.21240234,-0.66192627,0.13421631
-0.17749023,-0.6646118,0.117370605
-0.29248047,-0.94610596,0.14642334
-0.40039062,-1.3247681,0.0065307617
-0.12646484,-1.2053833,-0.18365479
-0.22802734,-1.2925415,0.12835693
-0.22973633,-0.78253174,-0.066223145
-0.1821289,-0.81988525,0.018249512
-0.27490234,-0.7190552,-0.054992676
-0.32739258,-0.6182251,0.20159912
-0.4350586,-1.024231,0.18963623
-0.4333496,-0.9649048,0.1774292
-0.06323242,-1.9248657,0.0368042
-0.31176758,-1.0918579,0.059020996
-0.23144531,-0.90704346,0.117614746
-0.23901367,-0.7178345,0.12640381
-0.23217773,-0.7608032,0.25360107
-0.23168945,-0.68756104,0.15594482
-0.21435547,-0.8574829,0.25872803
-0.30859375,-0.9651489,0.20550537
-0.33740234,-1.5840454,-0.3255005
-0.4633789,-1.1074829,0.31488037
-0.28808594,-1.0183716,-0.037902832
-0.24633789,-0.70562744,0.14764404
-0.23950195,-0.63165283,0.025817871
-0.3256836,-0.6856079,0.14178467
-0.4645996,-0.8218384,0.16571045
-0.37451172,-0.7876587,0.1942749
-0.0073242188,-1.9351196,-0.10601807
-0.26220703,-1.0879517,-0.054992676
-0.20336914,-1.0769653,0.11566162
-0.25048828,-0.7156372,0.07171631
-0.13623047,-0.7979126,0.11883545
-0.25097656,-0.7070923,0.13690186
-0.20336914,-0.8242798,0.22210693
-0.29003906,-1.0166626,0.19110107
-0.3972168,-1.5745239,-0.074035645
-0.25756836,-1.0640259,-0.03765869
-0.3095703,-1.1748657,0.16912842
-0.22631836,-0.7835083,-0.022766113
-0.21289062,-0.6333618,0.03704834
-0.3244629,-0.6421509,0.13031006
-0.40820312,-0.7854614,0.19500732
-0.35083008,-0.9421997,0.13494873
-0.118652344,-1.7056274,0.093933105
-0.3005371,-1.0952759,0.04876709
-0.22314453,-1.0640259,0.18353271
-0.2614746,-0.6704712,0.10858154
-0.17333984,-0.65582275,0.19500732
