accelX,accelY,accelZ
-0.24365234,-0.8892212,-0.57891846
-0.08227539,-0.9507446,-0.07208252
-0.10913086,-0.5418091,-0.21734619
0.16796875,-0.82769775,-0.31011963
-0.30859375,-0.5664673,-0.13018799
0.05126953,-0.7859497,-0.27789307
-0.42578125,-0.6531372,-0.333313
0.6875,-2.0,-0.22662354
0.14868164,-0.5305786,-0.007385254
-0.38110352,-0.5305786,-0.13018799
0.0925293,-1.0613403,0.0036010742
-0.016601562,-0.77471924,-0.30255127
-0.26245117,-1.9517212,-0.522522
-0.28051758,-0.7942505,-0.17877197
0.030761719,-0.54351807,-0.22247314
-0.041503906,-0.4414673,-0.12530518
-0.16845703,-0.395813,-0.07745361
0.042236328,-2.0,0.6430054
0.1381836,-0.55303955,-0.101379395
-0.011230469,-1.0230103,0.0446167
0.041503906,-0.82476807,-0.16998291
0.05517578,-1.1799927,-0.45367432
-0.31762695,-1.8738403,-0.4812622
-0.16430664,-0.58380127,-0.0791626
0.045898438,-0.8088989,-0.15509033
-0.23901367,-0.89556885,-0.018615723
-0.2290039,-0.9451294,-0.1585083
0.06958008,-1.2778931,-0.3723755
0.45092773,-1.4417114,0.109802246
-0.2758789,-0.800354,-0.30303955
-0.08325195,-0.6489868,0.105163574
0.09643555,-0.92852783,0.07562256
-0.033935547,-0.68218994,-0.06768799
0.030761719,-0.7503052,0.086120605
0.027832031,-1.5779419,-0.19122314
-0.33325195,-1.7734985,-0.52056885
-0.42578125,-1.0247192,-0.10845947
0.049316406,-0.44683838,-0.04473877
0.0017089844,-0.4500122,-0.24053955
-0.19335938,-0.5015259,0.028747559
-0.14038086,-2.0,-0.06427002
-0.17993164,-1.3591919,-0.534729
-0.29711914,-0.90875244,-0.16607666
-0.053710938,-0.42852783,-0.12310791
-0.064453125,-0.8789673,0.034362793
0.076171875,-1.0332642,-0.25177002
-0.6003418,-2.0,-0.2835083
-0.3449707,-0.7744751,-0.19903564
0.15161133,-0.6712036,-0.1494751
-0.119140625,-0.4673462,-0.17071533
-0.0126953125,-0.4187622,-0.108947754
0.55200195,-2.0,-0.34136963
-0.32495117,-1.0725708,-0.41949463
-0.09863281,-0.9170532,-0.062072754
0.0871582,-0.5154419,-0.04107666
0.008300781,-0.710022,-0.06939697
0.049316406,-1.3569946,-0.31524658
-0.3034668,-1.9119263,-0.22174072
-0.42456055,-0.50177,-0.33135986
0.23071289,-0.66119385,-0.097229004
-0.46142578,-0.66192627,-0.21466064
0.001953125,-0.32598877,-0.2617798
-0.10131836,-2.0,1.0263062
0.22998047,-1.185852,-0.09454346
-0.15625,-0.66290283,-0.12579346
0.06591797,-0.09625244,0.09197998
-0.10058594,-0.72369385,-0.36358643
0.30297852,-1.8018188,-0.40216064
-0.31811523,-0.98443604,-0.3501587
0.044677734,-0.53131104,0.009460449
-0.029052734,-0.9829712,-0.097473145
-0.061523438,-1.093811,-0.5095825
-0.19311523,-0.81085205,-0.07550049
-0.2763672,-1.0879517,0.02166748
-0.17260742,-0.76641846,0.009460449
-0.14208984,-0.57232666,-0.033996582
0.15795898,-1.0298462,-0.2703247
0.100097656,-1.7024536,-0.53009033
-0.20947266,-1.3672485,-0.12872314
-0.02709961,-0.41949463,-0.17437744
0.22167969,-0.38946533,-0.27716064
-0.38500977,-0.37017822,0.04949951
-0.26416016,-1.263977,-0.41558838
-0.057617188,-1.4714966,-0.13604736
-0.24072266,-0.5952759,-0.12164307
-0.125,-1.0430298,0.09710693
-0.32617188,-0.89801025,-0.101135254
-0.0012207031,-1.2012329,-0.44317627
1.1723633,-1.4624634,0.5795288
-0.23168945,-1.1416626,-0.3201294
-0.12036133,-0.64849854,0.06707764
0.04736328,-0.61431885,-0.17730713
-0.0053710938,-0.78253174,0.055114746
-0.005859375,-0.77301025,0.05633545
0.21728516,-0.5889282,-0.28619385
-0.20336914,-2.0,-0.39434814
-0.5239258,-0.88531494,-0.37554932
0.22802734,-0.18658447,-0.043518066
-0.14624023,-1.31427,-0.21929932
-0.037597656,-0.2420044,-0.36846924
1.1306152,-2.0,-0.67193604
0.1394043,-1.0586548,-0.1951294
-0.40551758,-0.4138794,-0.18707275
0.084472656,-0.7720337,0.0848999
0.19165039,-0.85821533,-0.24420166
0.25830078,-1.5186157,-0.46295166
-0.3791504,-1.7173462,-0.08770752
-0.13574219,-0.33477783,-0.22515869
0.1430664,-0.66192627,-0.15411377
-0.40844727,-0.46099854,-0.15679932
0.076416016,-0.30474854,-0.33233643
0.33911133,-2.0,0.54241943
-0.13867188,-0.76275635,-0.14093018
-0.04345703,-0.96954346,-0.06817627
0.14257812,-0.58966064,-0.09454346
-0.20703125,-1.4285278,-0.7581177
-0.30639648,-1.322815,-0.2859497
-0.21264648,-0.2144165,-0.2901001
0.13647461,-1.25177,-0.016906738
0.031982422,-0.6343384,0.044128418
0.0007324219,-0.5610962,-0.20318604
-0.296875,-1.5889282,-0.33551025
-0.40283203,-1.6799927,0.21917725
-0.32104492,-0.3538208,-0.36090088
-0.028320312,-0.8677368,-0.16461182
0.1496582,-0.3328247,-0.025939941
-0.44799805,-1.5320435,-0.5161743
0.13061523,-1.2827759,0.06390381
-0.19067383,-0.6206665,-0.24908447
-0.09033203,-1.1216431,0.20428467
-0.2163086,-0.96173096,-0.36138916
0.07446289,-1.1279907,-0.36090088
-0.111328125,-1.5093384,-0.120666504
-0.08862305,-0.6235962,-0.06524658
-0.1862793,-0.7788696,-0.14752197
-0.37304688,-0.69317627,-0.13067627
-0.021484375,-1.5122681,-0.0020141602
0.19213867,-0.9624634,-0.255188
-0.072509766,-1.4815063,-0.38726807
-0.031982422,-0.6148071,-0.2666626
-0.05883789,-0.612854,-0.006164551
0.028808594,-0.7954712,-0.015686035
-0.16235352,-0.7041626,-0.14361572
0.21166992,-0.52130127,-0.1921997
0.57666016,-2.0,-0.7998657
-0.6442871,-0.8677368,-0.5840454
0.0009765625,-0.38824463,-0.15802002
-0.0126953125,-1.3667603,0.08099365
-0.083740234,-0.8982544,-0.37017822
-0.17041016,-1.4734497,-0.16046143
-0.4013672,-0.12896729,-0.16802979
0.15429688,-1.022522,-0.25323486
-0.095458984,-0.8201294,-0.09307861
-0.24804688,-0.73931885,-0.29766846
0.09887695,-1.4016724,-0.15460205
-0.11425781,-0.77349854,-0.27349854
-0.084228516,-0.7319946,0.053649902
0.08691406,-0.722229,0.021911621
-0.048339844,-1.3792114,-0.074035645
0.20654297,-0.987854,-0.40631104
-0.4736328,-1.1401978,-0.78131104
0.10083008,-1.2683716,-0.14849854
-0.14990234,-0.82232666,-0.29815674
0.11694336,-0.72052,-0.22076416
-0.21362305,-0.8364868,-0.19537354
-0.08642578,-0.5857544,-0.15362549
-0.13598633,-0.97613525,-0.11602783
-0.30493164,-0.847229,-0.46661377
0.15429688,-2.0,-0.038879395
-0.4440918,-0.54156494,-0.43023682
0.2175293,-1.039856,0.034606934
-0.056640625,-0.59747314,0.0045776367
0.010253906,-0.5911255,-0.11871338
0.095214844,-1.1773071,-0.39752197
-0.3857422,-1.722229,-0.34698486
-0.28027344,-0.59039307,-0.2210083
0.24267578,-0.85479736,-0.15704346
-0.4482422,-0.50494385,-0.33551025
0.04638672,-0.4241333,-0.32305908
0.2631836,-2.0,0.34906006
0.033203125,-0.93878174,-0.13580322
-0.12573242,-0.6956177,-0.21514893
-0.018310547,-0.6543579,-0.078430176
0.036621094,-1.0100708,0.0026245117
0.15771484,-1.1223755,-0.5154419
-0.40283203,-1.6907349,-0.27349854
-0.24145508,-0.85650635,-0.32061768
0.1081543,-0.73883057,-0.07965088
-0.08618164,-0.6055298,-0.2390747
-0.20410156,-0.42266846,-0.14752197
0.10986328,-1.1506958,-0.32574463
0.114990234,-1.2747192,-0.3262329
0.12475586,-0.9492798,0.070007324
-0.051513672,-0.70147705,-0.06427002
-0.16357422,-0.64630127,-0.18218994
0.12451172,-0.7996216,-0.21368408
-0.0007324219,-1.5759888,-0.5281372
-0.3251953,-1.1677856,-0.22735596
-0.26757812,-0.5046997,-0.28863525
0.115234375,-0.8855591,-0.12872314
-0.31201172,-0.39849854,-0.105285645
0.07421875,-0.78326416,-0.2954712
0.052001953,-1.6350708,-0.29278564
0.1640625,-0.83477783,-0.05303955
-0.23803711,-0.7280884,0.0021362305
-0.075683594,-0.91851807,-0.06817627
0.09814453,-0.5733032,0.030456543
-0.3479004,-0.95318604,-0.34796143
-0.15234375,-1.3855591,0.059020996
-0.35620117,-1.097229,-0.11529541
0.064208984,-0.6240845,0.08148193
-0.25830078,-0.722229,-0.09576416
-0.20458984,-0.73638916,-0.1506958
0.5012207,-2.0,0.16595459
-0.18603516,-0.722229,-0.18048096
0.060791016,-0.6104126,0.15203857
-0.071777344,-0.76397705,-0.017150879
-0.067871094,-1.0610962,0.009460449
-0.04638672,-1.161438,-0.19268799
0.5185547,-1.348938,-0.49761963
-0.560791,-0.81427,-0.3015747
0.005126953,-0.9429321,0.04071045
0.1081543,-0.6865845,-0.22027588
-0.035888672,-0.91534424,-0.038635254
-0.044921875,-0.45391846,-0.2678833
-0.30200195,-0.7756958,-0.2276001
-0.064208984,-0.74102783,-0.23028564
0.2998047,-2.0,-0.20513916
-0.0053710938,-0.63287354,-0.19708252
-0.3166504,-0.40924072,-0.055725098
0.025878906,-0.9859009,-0.11578369
0.1394043,-0.659729,-0.3423462
-0.033447266,-1.8738403,-0.85479736
-0.20581055,-0.8916626,-0.03692627
-0.14453125,-0.34259033,-0.0960083
0.25878906,-1.1690063,-0.09112549
-0.26416016,-0.29962158,-0.20050049
0.2409668,-1.33844,-0.31524658
0.12573242,-1.6878052,-0.16607666
-0.29589844,-0.7932739,-0.27911377
0.057617188,-0.986145,0.113708496
-0.040771484,-0.53985596,0.05340576
0.07910156,-0.972229,0.059265137
-0.1940918,-1.1585083,-0.06402588
0.14355469,-1.1912231,-0.31500244
-0.0871582,-1.6863403,-0.24298096
-0.25170898,-0.36236572,-0.0947876
0.17016602,-1.1948853,-0.23565674
-0.3227539,-0.76885986,-0.09307861
-0.24267578,-1.0823364,-0.08087158
-0.20678711,-1.0906372,-0.041809082
0.39404297,-0.9883423,-0.31793213
0.014404297,-0.93536377,-0.2666626
0.061279297,-0.79400635,-0.11260986
0.04296875,-0.7637329,-0.0020141602
0.040771484,-0.8796997,-0.13995361
-0.13354492,-0.82037354,0.034606934
-0.0053710938,-0.6865845,-0.033996582
0.12207031,-1.7468872,-0.3196411
0.20361328,-1.1221313,-0.300354
-0.31689453,-1.3609009,-0.23809814
-0.09765625,-0.29986572,-0.109436035
0.0234375,-0.6030884,-0.27911377
-0.33203125,-0.69976807,-0.1482544
0.052001953,-0.819397,-0.10797119
-0.022216797,-1.486145,-0.4920044
-0.15307617,-1.3342896,-0.3320923
-0.06591797,-0.8152466,-0.17974854
0.05883789,-0.64556885,0.11541748
-0.01171875,-0.8088989,-0.074279785
-0.028564453,-0.99591064,-0.21343994
-0.29248047,-2.0,-0.45977783
-0.49829102,-0.909729,-0.2805786
0.16577148,-0.6487427,-0.21539307
-0.045166016,-0.5615845,-0.049621582
-0.33642578,-0.4907837,-0.2444458
0.39257812,-2.0,-0.91656494
-0.25805664,-1.4094849,-0.5664673
-0.12084961,-0.8760376,-0.18951416
0.029541016,-0.581604,-0.017150879
-0.14770508,-0.7427368,-0.1494751
0.099853516,-1.0130005,-0.1326294
-0.3413086,-1.4028931,-0.42364502
-0.0234375,-1.40094,-0.35308838
-0.083984375,-0.2781372,-0.12530518
0.14746094,-0.7263794,-0.20074463
-0.3166504,-0.5808716,-0.16070557
-0.09765625,-0.6453247,-0.17510986
0.13354492,-1.7571411,-0.2888794
0.08959961,-1.7478638,-0.093566895
-0.2788086,-0.7542114,-0.32330322
0.08496094,-0.7600708,0.016784668
-0.0793457,-0.81207275,-0.028625488
0.10229492,-0.6265259,-0.24737549
-0.03125,-1.9109497,-0.25982666
-0.22924805,-1.2522583,-0.27838135
-0.25512695,-0.548645,-0.19171143
0.1340332,-0.7263794,-0.12164307
-0.4104004,-0.46002197,-0.190979
0.037597656,-0.3965454,-0.19561768
-0.25610352,-2.0,0.1852417
0.12768555,-1.0532837,-0.06427002
-0.1171875,-1.0916138,0.034606934
-0.24145508,-0.6956177,0.0026245117
-0.067871094,-0.8599243,0.08343506
-0.10083008,-1.1057739,-0.2649536
-0.056396484,-1.3047485,-0.48590088
-0.08544922,-1.2651978,-0.26617432
-0.19482422,-0.7036743,-0.046203613
-0.15942383,-0.7571411,-0.13580322
-0.37890625,-0.69122314,-0.17828369
-0.29492188,-1.3674927,0.04925537
0.12109375,-1.0916138,-0.56915283
0.15405273,-1.3289185,-0.19976807
-0.07861328,-0.6001587,-0.17974854
0.039794922,-0.5906372,0.0446167
0.118896484,-1.0479126,-0.0029907227
-0.2553711,-0.8689575,-0.027404785
0.022216797,-0.43756104,0.012634277
0.034179688,-1.5430298,0.073913574
0.08105469,-1.1760864,-0.24005127
-0.6352539,-2.0,0.05267334
-0.23828125,-0.3110962,-0.12042236
0.072509766,-0.6069946,-0.14434814
-0.17822266,-1.1223755,-0.013000488
-0.2788086,-0.6292114,-0.19415283
-0.059814453,-0.96295166,-0.27105713
0.09716797,-1.5747681,-0.012512207
0.23608398,-1.9033813,-0.023986816
-0.19873047,-0.6021118,-0.23321533
-0.061035156,-0.68585205,-0.05206299
-0.12475586,-0.8135376,0.08099365
-0.046875,-0.72198486,-0.024963379
0.41601562,-1.5137329,-0.6668091
-0.66064453,-1.3604126,-0.2781372
-0.28198242,-0.5408325,-0.07525635
-0.10229492,-0.76275635,-0.10772705
-0.23925781,-0.9414673,-0.090148926
-0.2121582,-0.5095825,-0.08258057
-0.23242188,-0.81207275,-0.2654419
0.34985352,-2.0,0.260437
0.17944336,-1.0137329,0.12738037
0.036376953,-0.39068604,0.03314209
-0.053466797,-0.76519775,0.012878418
-0.02368164,-1.2310181,0.058288574
-0.061035156,-1.0525513,0.0045776367
-0.09887695,-1.237854,-0.3069458
0.07421875,-0.9619751,-0.32232666
-0.24584961,-0.8838501,-0.47979736
0.034423828,-1.0110474,-0.08453369
-0.08203125,-0.67266846,-0.3743286
0.1081543,-1.1797485,0.0021362305
-0.23608398,-0.42266846,-0.38360596
-0.072265625,-0.6565552,-0.16119385
-0.14648438,-0.72979736,-0.30645752
-0.17675781,-1.7485962,-0.39996338
0.14160156,-1.0413208,-0.06378174
-0.5239258,-0.61431885,-0.27960205
0.13769531,-0.9963989,0.006286621
0.19458008,-0.78497314,-0.08355713
0.057373047,-0.9402466,-0.43878174
-0.58618164,-1.6497192,-0.19000244
-0.22827148,-0.7647095,-0.26397705
0.19677734,-0.7984009,-0.05279541
-0.38500977,-0.53082275,-0.30718994
0.10131836,-0.4348755,-0.32159424
0.24609375,-2.0,0.69403076
-0.015380859,-0.897522,-0.28570557
-0.13110352,-0.8027954,-0.07305908
0.14355469,-0.6995239,-0.061584473
-0.004638672,-0.78912354,-0.19830322
0.31420898,-1.4915161,-0.59576416
-0.5332031,-1.164856,-0.44171143
-0.052001953,-0.5767212,-0.12432861
0.22436523,-0.7883911,-0.16217041
