accelX,accelY,accelZ
0.3647461,-2.0,0.2255249
0.84521484,-2.0,0.2321167
-0.06640625,-0.52178955,-0.23590088
0.45092773,0.19207764,-0.34649658
-0.25830078,-0.046447754,-0.13140869
1.999939,-2.0,0.42938232
0.59277344,-1.3533325,-0.011291504
-1.0512695,0.5602417,-0.33599854
0.17260742,-0.046447754,-0.17584229
-0.22924805,-1.8208618,-0.078430176
0.5349121,-1.7354126,0.30706787
-0.040771484,-0.81427,-0.17974854
0.2692871,0.32537842,-0.3123169
-0.21655273,-0.13140869,0.14349365
1.999939,-2.0,0.36590576
0.19458008,-1.197815,-0.5755005
-0.6147461,0.41912842,-0.22027588
0.28271484,-0.19561768,-0.06451416
0.13354492,-0.99884033,-1.3796997
-1.4272461,-2.0,0.277771
-0.16674805,-0.91485596,-0.41070557
0.33789062,0.33270264,-0.25982666
0.3256836,-0.016174316,-0.024719238
0.9194336,-2.0,-0.5054321
-1.1604004,-1.4871216,-0.14898682
0.17285156,-0.25152588,0.11444092
0.083740234,-0.17730713,-0.039611816
0.296875,-0.9651489,-1.2940063
-1.2456055,-2.0,-0.0037231445
0.0234375,-1.102356,-0.23321533
0.20727539,0.48406982,-0.22906494
-0.010009766,-0.13995361,0.04901123
1.6633301,-2.0,-0.7312622
-0.27270508,-1.3538208,-0.42095947
-0.12890625,-0.3970337,0.23846436
0.23095703,-0.10406494,-0.25860596
0.34887695,-0.5906372,-1.5908813
-1.9174805,-2.0,-0.89630127
-0.23925781,-1.1782837,-0.503479
0.4411621,0.35150146,-0.010314941
0.27026367,0.012634277,-0.027648926
0.091308594,-1.5244751,-1.1138306
-2.0,-1.9243774,0.10369873
0.2409668,-0.9043579,0.24725342
0.12084961,0.10247803,-0.1663208
-0.15405273,-0.012756348,0.101989746
1.2041016,-2.0,-0.5803833
0.5566406,-1.8394165,-0.12677002
0.23144531,0.16595459,-0.042053223
0.16699219,0.20184326,-0.16265869
-0.0546875,-1.3162231,-0.84625244
-2.0,-2.0,0.14813232
0.49780273,-1.2839966,0.18963623
-0.20825195,0.45965576,-0.058898926
0.0703125,-0.026184082,-0.019836426
-0.58325195,-2.0,0.117126465
-0.43017578,-1.7654419,0.82318115
-0.15600586,-0.2642212,-0.03741455
0.45629883,0.28656006,-0.5198364
-0.17138672,-0.28961182,-0.33111572
1.8691406,-2.0,0.3234253
0.6569824,-1.2839966,-0.10455322
-0.81225586,0.8307495,-0.22906494
0.18139648,-0.3106079,-0.08135986
-0.104003906,-1.8674927,-1.3516235
-2.0,-1.8157349,0.56707764
-0.11303711,-0.6001587,-0.29473877
0.5341797,0.19622803,-0.1687622
0.1784668,-0.02178955,-0.08135986
1.6643066,-2.0,-0.37799072
-0.87475586,-1.0484009,-0.53692627
0.021240234,-0.45440674,0.3834839
0.30932617,0.15618896,-0.29180908
-0.1574707,-0.11553955,0.17791748
-0.005859375,-2.0,0.3143921
0.1743164,-2.0,0.60491943
0.20605469,-0.2798462,-0.20465088
0.26000977,0.40057373,-0.4727173
-0.12060547,-0.36676025,-0.29058838
1.3742676,-2.0,-0.053771973
0.58691406,-1.4763794,-0.057678223
-0.6970215,0.55389404,-0.27667236
0.31225586,-0.36846924,-0.101867676
-0.115722656,-1.4673462,-0.7307739
-0.7927246,-1.4995728,0.35369873
-0.19091797,-0.78692627,0.0028686523
0.4477539,0.37347412,-0.4133911
0.07910156,-0.18560791,-0.00982666
1.1142578,-2.0,0.42059326
0.072021484,-0.9104614,-0.17242432
-0.33398438,-0.18756104,0.11663818
0.34228516,0.13763428,-0.042053223
0.13842773,-0.36749268,-0.95562744
-0.70874023,-2.0,-0.39215088
0.33129883,-1.3457642,-0.4619751
0.18066406,0.26287842,-0.058166504
0.4567871,0.097839355,-0.02130127
0.3395996,-0.7913208,-1.3464966
-1.4560547,-2.0,-0.3189087
0.40673828,-1.1802368,0.33416748
-0.048095703,0.5512085,-0.19415283
-0.15454102,0.007019043,-0.08258057
-0.001953125,-2.0,0.18865967
0.39526367,-1.977356,0.19866943
0.16064453,-0.12896729,-0.159729
0.41210938,0.23162842,-0.34405518
0.083984375,-0.3381958,-0.9981079
-0.33496094,-2.0,0.07635498
0.17602539,-1.4155884,0.07269287
-0.33422852,0.5453491,-0.16851807
0.12133789,-0.02935791,-0.13043213
0.29663086,-1.5249634,-1.3289185
-0.59521484,-2.0,0.5182495
-0.03466797,-0.5569458,-0.28497314
0.30908203,0.29241943,-0.27667236
-0.23071289,-0.27911377,0.14471436
1.972168,-2.0,-0.22955322
0.056152344,-1.1817017,-0.63482666
-0.22436523,0.018005371,0.11859131
0.15673828,-0.05621338,-0.1585083
-0.34936523,-0.19390869,-0.047424316
0.09838867,-2.0,-0.19293213
0.5810547,-1.7566528,-0.5339966
0.29736328,0.21087646,0.055847168
0.2602539,0.22723389,-0.02545166
0.2475586,-1.3870239,-0.710022
-2.0,-2.0,-0.004211426
0.51416016,-1.4082642,0.29852295
-0.21435547,0.63690186,-0.17388916
0.14135742,-0.10308838,-0.007385254
-0.40625,-2.0,0.49749756
0.5498047,-2.0,0.47772217
0.115234375,-0.31622314,-0.0017700195
0.31811523,0.24432373,-0.28424072
-0.27294922,-0.10479736,-0.11236572
1.7219238,-2.0,0.7304077
0.5961914,-1.5903931,-0.24371338
-0.3527832,0.55462646,-0.13970947
0.0715332,-0.30914307,-0.16973877
0.07373047,-0.5376587,-1.0237427
-1.0400391,-2.0,-0.43780518
0.15527344,-1.3140259,-0.55133057
0.30126953,0.25579834,-0.093566895
0.29077148,0.25042725,0.047302246
0.92211914,-1.4978638,-0.8218384
-1.9650879,-1.6531372,0.0993042
0.055419922,-1.0039673,0.18914795
0.14331055,0.20111084,-0.17681885
-0.26904297,-0.04815674,0.050231934
0.37890625,-2.0,0.019470215
0.7775879,-2.0,0.082214355
-0.10083008,-0.13848877,-0.07110596
0.57299805,0.36639404,-0.3447876
-0.26367188,-0.29327393,-0.1975708
1.999939,-2.0,0.27020264
0.30493164,-1.1497192,-0.08477783
-0.38232422,0.88079834,-0.22247314
0.0048828125,-0.19146729,-0.12506104
0.18969727,-1.3023071,-1.1382446
-0.609375,-1.9641724,0.39959717
-0.21728516,-0.7817993,-0.09283447
0.3635254,0.40423584,-0.362854
0.15332031,-0.12188721,0.0289917
0.86328125,-2.0,-0.583313
-0.98291016,-1.4348755,-0.17193604
-0.03540039,-0.5713501,0.4022827
0.13110352,0.20062256,-0.37774658
-0.107177734,-0.004211426,0.058776855
0.3840332,-2.0,-0.12677002
0.36547852,-1.9746704,0.09100342
0.06201172,-0.2276001,-0.02545166
0.33984375,0.49505615,-0.4319458
-0.14501953,-0.4451294,-0.8753052
0.6533203,-2.0,0.26287842
0.27905273,-1.2700806,0.07928467
-0.33374023,0.5084839,-0.1260376
0.11767578,-0.13287354,-0.18170166
-0.23486328,-2.0,-0.29840088
-0.16333008,-1.9812622,0.66864014
-0.009277344,-0.5940552,-0.13482666
0.49902344,0.31170654,-0.40875244
-0.25268555,-0.12530518,0.030944824
1.3857422,-2.0,0.21014404
0.28930664,-1.390686,-0.24053955
-0.31445312,-0.21807861,0.15765381
0.28222656,-0.019836426,-0.17144775
-0.047851562,-0.22711182,-0.21539307
0.6687012,-2.0,-0.26324463
0.5830078,-1.7991333,-0.43414307
0.2368164,0.09906006,-0.17755127
0.24584961,0.1515503,-0.055725098
0.24804688,-0.3303833,-1.3223267
0.8701172,-2.0,-0.3069458
0.7084961,-1.7485962,0.12176514
-0.5354004,0.45184326,-0.10479736
0.2775879,-0.175354,-0.08355713
-0.56396484,-1.6763306,-0.19854736
0.017089844,-1.6824341,0.58148193
-0.045898438,-0.84088135,0.0016479492
0.2680664,0.28289795,-0.38653564
-0.045166016,-0.13287354,0.017028809
0.99365234,-2.0,-0.062072754
-0.83740234,-1.3045044,-0.34332275
-0.020751953,-0.49517822,0.3781128
0.31860352,0.22625732,-0.3069458
-0.040771484,-0.47662354,-0.60406494
-0.7651367,-2.0,-0.47906494
0.06567383,-1.2581177,-0.22418213
0.061767578,0.35614014,-0.011291504
0.5756836,0.005065918,-0.0037231445
0.8952637,-2.0,-0.550354
-0.74731445,-1.328186,-0.4356079
-0.1262207,-0.6963501,0.25628662
0.041748047,0.30999756,-0.16729736
-0.13964844,-0.003967285,-0.030822754
-0.21533203,-2.0,-0.41412354
-0.08618164,-2.0,0.75579834
0.0146484375,-0.46905518,-0.0803833
0.09765625,0.25823975,-0.34991455
-0.009521484,-0.30499268,0.030700684
1.999939,-2.0,0.32489014
0.42993164,-1.2493286,-0.5396118
-0.32714844,0.0138549805,0.08392334
0.00024414062,-0.14312744,-0.1453247
-0.13500977,-0.15509033,-0.6433716
0.37158203,-2.0,-0.13677979
0.4260254,-1.5872192,-0.39141846
0.1550293,0.2164917,-0.026184082
0.31298828,0.20574951,-0.10675049
0.23388672,-0.69781494,-0.7312622
-0.4248047,-2.0,-0.20367432
0.3076172,-1.5650024,0.16766357
-0.27514648,0.5765991,-0.43218994
0.05834961,-0.06964111,0.023620605
-0.85058594,-2.0,0.355896
0.6032715,-2.0,0.8226929
-0.12866211,-0.14068604,-0.17559814
0.2980957,0.14398193,-0.30499268
-0.09326172,-0.14654541,-0.62945557
0.5046387,-2.0,0.054626465
0.01171875,-1.5916138,0.07684326
-0.1965332,0.3973999,-0.13873291
-0.087646484,-0.18951416,-0.18218994
0.47045898,-1.2185669,-1.2839966
-1.0996094,-1.7695923,-0.19195557
-0.1640625,-0.8591919,-0.28082275
0.22680664,0.20770264,-0.11968994
0.32861328,-0.06085205,0.03656006
0.70166016,-1.7420044,-0.45440674
-1.3254395,-1.2498169,-0.32061768
0.012207031,-0.89385986,0.2675171
0.0048828125,0.38519287,-0.22467041
-0.14111328,0.11663818,0.00018310547
-0.21606445,-2.0,-0.14971924
0.049804688,-1.9961548,0.34588623
0.123535156,-0.32305908,-0.28082275
0.25634766,0.19573975,-0.30767822
0.052490234,-0.16680908,-0.25079346
1.999939,-2.0,0.23626709
0.47021484,-1.3987427,-0.25738525
-0.45483398,0.24945068,0.07342529
0.14355469,-0.16339111,-0.15582275
-0.27001953,-0.30743408,-0.54229736
0.4584961,-2.0,-0.536438
0.5800781,-1.022522,-0.8377075
0.1237793,-0.06817627,-0.014709473
0.2541504,-0.08917236,-0.08453369
0.8713379,-1.7105103,-1.0061646
-1.1015625,-1.2944946,-0.04058838
-0.06518555,-0.62335205,0.24017334
-0.017089844,0.3451538,-0.28619385
-0.09814453,-0.01763916,-0.10064697
-0.057861328,-2.0,0.18597412
0.9953613,-2.0,0.33392334
-0.09716797,-0.24005127,-0.04815674
0.43798828,0.16156006,-0.32476807
-0.4411621,-0.12530518,0.16912842
1.999939,-2.0,0.38983154
0.14208984,-1.0982056,-0.57647705
-0.37426758,0.23431396,-0.07281494
0.029785156,-0.09283447,-0.12799072
0.22070312,-0.7883911,-1.03302
-1.605957,-2.0,-0.16998291
-0.30297852,-1.0401001,-0.1819458
0.2919922,0.21746826,-0.22930908
0.37402344,0.08807373,-0.11260986
0.79052734,-1.5935669,-0.835022
-2.0,-1.9104614,0.20941162
0.13769531,-1.0408325,0.18084717
-0.05493164,0.40570068,-0.19415283
0.057617188,0.117126465,-0.08404541
-0.0793457,-2.0,0.17596436
0.58862305,-2.0,0.5050659
0.001953125,-0.42218018,-0.12750244
0.18945312,0.2975464,-0.49102783
0.0021972656,-0.0725708,0.02532959
1.7810059,-2.0,0.40838623
-0.107421875,-1.2754517,-0.64727783
-0.14282227,-0.005432129,0.08782959
0.06616211,-0.14459229,-0.101135254
0.26831055,-0.7163696,-0.97662354
-1.3894043,-2.0,-0.17730713
0.19921875,-1.2112427,-0.32769775
0.15698242,0.28045654,-0.0791626
0.45385742,0.06536865,-0.13360596
0.11669922,-1.5059204,-0.55010986
-1.9824219,-2.0,0.07269287
0.25610352,-1.2481079,0.27044678
-0.11816406,0.4706421,-0.0413208
0.107421875,-0.012756348,-0.078430176
-0.80444336,-2.0,-0.7659302
-1.0942383,-2.0,0.711853
0.18310547,-0.7190552,-0.11578369
0.17626953,0.2501831,-0.30303955
0.0,-0.09674072,-0.0022583008
1.151123,-2.0,-0.9927368
-1.3596191,-1.0923462,-0.21392822
0.06347656,-0.33306885,0.16400146
0.020751953,0.0036010742,-0.24005127
0.011962891,-0.11431885,-0.7329712
-0.9399414,-2.0,-0.6687622
-0.03515625,-1.43219,-0.2444458
0.1586914,0.09539795,-0.12286377
0.37524414,0.25482178,-0.006652832
0.23120117,-0.3904419,-0.95318604
0.91625977,-2.0,-0.46099854
0.5749512,-1.302063,0.14422607
-0.71118164,0.6300659,-0.113342285
0.3305664,-0.120666504,-0.14312744
-0.08251953,-1.4568481,-1.2232056
-1.2470703,-2.0,0.35150146
0.052490234,-0.7595825,-0.48590088
0.44677734,0.13250732,-0.17510986
0.2854004,0.15130615,-0.0010375977
0.95043945,-2.0,-0.2312622
-1.0615234,-1.0166626,-0.1506958
-0.020507812,-0.59942627,0.309021
0.111572266,0.26116943,-0.12994385
-0.111328125,0.0026245117,0.04510498
-0.3347168,-2.0,0.3048706
0.21777344,-2.0,0.8180542
-0.106933594,-0.19488525,-0.04840088
0.3071289,0.20794678,-0.41558838
-0.2890625,-0.09039307,0.19598389
1.999939,-2.0,0.5289917
0.32592773,-1.4963989,-0.3171997
-0.42504883,0.32781982,-0.0647583
0.026123047,-0.20513916,-0.11993408
0.080322266,-0.9746704,-1.0518188
-1.5842285,-2.0,0.16448975
-0.03491211,-1.0527954,-0.010559082
0.09692383,0.32196045,-0.08087158
0.38842773,0.13812256,-0.12994385
0.103759766,-1.8355103,0.011657715
-1.8500977,-2.0,0.27703857
0.32592773,-1.2285767,0.18231201
-0.18896484,0.50115967,-0.06304932
0.005126953,0.03289795,0.024108887
0.22607422,-2.0,0.4179077
0.59521484,-2.0,0.385437
-0.15917969,-0.3604126,-0.038146973
0.47607422,0.31878662,-0.34332275
-0.37329102,-0.030334473,-0.008117676
1.999939,-2.0,0.46136475
0.49243164,-1.6499634,-0.42633057
-0.2355957,0.3085327,-0.033996582
0.055419922,-0.14849854,-0.113098145
-0.2277832,-0.26641846,-0.48712158
0.44091797,-2.0,-0.50665283
0.2487793,-1.5715942,-0.317688
0.06713867,0.36566162,0.046813965
0.39624023,0.28338623,-0.17828369
0.31689453,-2.0,-0.20733643
-1.8557129,-1.8613892,0.37835693
0.16821289,-0.95391846,0.12860107
-0.22924805,0.3595581,-0.18267822
-0.053710938,-0.07476807,0.10467529
0.64404297,-2.0,0.4508667
0.44311523,-2.0,0.9291382
-0.13500977,-0.024963379,0.019714355
0.23413086,0.15301514,-0.4036255
-0.3564453,-0.037902832,-0.2197876
1.999939,-2.0,0.7040405
0.26123047,-1.37677,-0.18365479
-0.2849121,0.38641357,0.003112793
0.107421875,-0.14239502,-0.17510986
0.16821289,-1.3579712,-1.0586548
