accelX,accelY,accelZ
0.83154297,-0.7485962,0.23284912
0.045410156,-0.4319458,-0.29156494
0.15649414,0.26287842,-0.40631104
1.999939,-2.0,0.28826904
0.18652344,-0.92266846,-0.28277588
0.84375,-0.9727173,0.5614624
0.1965332,0.043151855,-0.058898926
-0.12719727,-0.20831299,-0.5401001
1.5273438,-2.0,1.8114624
0.20996094,-0.9517212,-0.22955322
0.87597656,-0.7251587,0.15106201
0.14160156,-0.5745239,-0.27667236
0.14892578,0.3131714,-0.36920166
1.999939,-2.0,1.7033081
0.28149414,-0.52178955,-0.23345947
0.7038574,-1.1494751,0.47332764
-0.24658203,0.6293335,-0.04449463
0.35766602,-0.36602783,-0.23931885
1.364502,-1.156311,0.61273193
-0.2253418,-0.9277954,0.019226074
1.1535645,-0.49053955,0.6564331
-0.079833984,0.058532715,0.06463623
0.45507812,0.016052246,-0.6231079
1.1525879,-0.86065674,-0.069885254
0.034423828,-1.1636353,-0.04058838
0.37548828,-0.3513794,0.18743896
-0.68847656,0.11932373,-0.583313
1.0583496,-2.0,0.71795654
0.5942383,-1.5149536,-0.23052979
0.65527344,-0.92803955,0.2838745
0.29956055,0.027770996,-0.26715088
-0.22875977,-0.10089111,-0.76885986
1.2663574,-0.99224854,0.72039795
1.107666,-1.347229,0.08026123
0.5895996,-0.8994751,0.5153198
-0.15527344,0.3612671,-0.014465332
0.14160156,-0.25933838,0.057800293
1.5688477,-2.0,1.5241089
0.71118164,-0.6296997,-0.26202393
0.38012695,-0.24053955,0.003112793
-0.45654297,0.8043823,-0.38311768
0.49609375,-0.5059204,-0.659729
1.4772949,-1.3220825,-0.36016846
0.09643555,-0.99884033,0.557312
-0.32861328,0.56243896,-0.20880127
0.52197266,-0.16656494,0.0368042
0.4580078,-1.06427,0.49725342
0.5476074,-0.5237427,-0.26812744
0.31591797,-0.1519165,0.04852295
-0.44995117,0.94866943,-0.20343018
0.18188477,-0.016662598,0.11248779
1.1281738,-1.2073364,-0.78570557
0.26757812,-0.9060669,0.48895264
-0.29589844,0.61639404,-0.25274658
0.21118164,-0.46246338,0.23529053
1.9790039,-2.0,1.7421265
0.6098633,-0.5557251,-0.33843994
0.5083008,0.04119873,0.07318115
-0.4086914,0.38934326,-0.09820557
0.050048828,-0.13018799,-0.50323486
0.6040039,-1.6531372,-0.90631104
0.92285156,-1.133606,0.5548706
-0.4897461,0.4882202,0.066345215
0.19750977,-0.02520752,0.035339355
1.7788086,-2.0,1.9364624
0.18310547,-0.692688,-0.08013916
0.7541504,-0.3731079,0.14276123
0.38623047,0.053894043,-0.21173096
-0.25683594,0.21624756,-0.4968872
1.2285156,-2.0,-0.14385986
-0.010986328,-0.8821411,0.20135498
-0.009033203,0.4093628,0.309021
-0.1652832,0.5363159,0.036071777
1.999939,-2.0,1.999939
0.0048828125,-0.7937622,-0.078186035
1.0749512,-0.25128174,0.013122559
0.016845703,0.08782959,0.041931152
0.18579102,0.2387085,-0.19073486
0.78027344,-1.0283813,0.49505615
-0.43603516,-0.6362915,0.64715576
0.27661133,0.246521,0.30975342
-0.5979004,0.8805542,-0.2859497
1.999939,-2.0,-2.0
-0.08178711,-1.7532349,0.9940796
0.9621582,-0.27764893,-0.14874268
-0.011962891,-0.08331299,0.2177124
0.004638672,0.29925537,-0.6057739
1.999939,-2.0,1.999939
-0.7402344,-1.0117798,0.012145996
0.98291016,-0.7424927,0.3287964
-0.87719727,0.6012573,-0.894104
1.999939,-1.7376099,-1.0130005
0.3083496,-1.2019653,0.13079834
0.83251953,-0.49761963,0.28070068
0.07299805,-0.57159424,-0.45147705
-0.15258789,0.6149292,-0.004211426
1.999939,-0.7637329,-2.0
0.27539062,-1.3589478,-0.8171997
0.8293457,-0.69537354,0.4310913
-0.26367188,0.4537964,-0.23883057
0.3310547,-0.18927002,0.006286621
0.8515625,-1.8430786,0.7880249
0.6984863,-0.7283325,-0.4121704
0.5493164,-0.45684814,0.16375732
-0.06616211,0.17938232,-0.049865723
0.9316406,-0.07867432,0.06512451
0.61035156,-1.3884888,0.1227417
0.3232422,-0.64849854,0.33050537
0.1508789,0.04510498,0.24505615
-0.27197266,0.3414917,-0.538147
1.9057617,-2.0,1.999939
0.01928711,-0.86676025,-0.04034424
1.0524902,-0.206604,0.41571045
-0.122802734,-0.45684814,-0.20367432
-0.17675781,0.54364014,-0.315979
1.999939,-2.0,1.999939
-0.043701172,-0.87579346,-0.15216064
0.89086914,-0.8106079,0.48773193
-0.22924805,0.3204956,-0.4175415
0.76904297,-0.17388916,-0.4192505
0.5527344,-1.3711548,1.2247925
0.44067383,-0.440979,-0.40216064
0.5605469,-0.5523071,0.24603271
-0.13208008,-0.2954712,-0.016906738
0.18188477,0.13934326,-0.3423462
1.0273438,-1.836731,-0.2852173
-0.0031738281,-0.55426025,0.33416748
0.70532227,-0.300354,0.39544678
-0.29785156,0.17230225,-0.1638794
1.8344727,-1.7400513,-0.5586548
0.548584,-1.2879028,0.7079468
0.6345215,-0.058166504,0.027526855
0.030029297,-0.96954346,-0.159729
-0.2241211,0.097595215,-0.32965088
1.999939,-1.1897583,0.3463745
0.43115234,-1.5496216,-0.6079712
0.31298828,-0.6987915,0.46453857
0.12451172,0.35809326,0.20916748
-0.30541992,0.14056396,-0.43414307
1.2895508,-2.0,1.999939
0.044921875,-0.91485596,-0.35772705
0.873291,-0.18121338,0.19207764
-0.016845703,-0.6934204,-0.35821533
0.041992188,0.3131714,-0.6460571
1.9492188,-2.0,1.999939
-0.09326172,-1.0230103,-0.0012817383
0.82055664,-0.7202759,0.53460693
-0.4868164,0.70184326,-0.08892822
0.06567383,-0.38482666,-0.20709229
1.4533691,-1.2363892,0.4616089
0.44677734,-1.0005493,-0.12359619
0.98413086,-0.39971924,0.28997803
-0.3515625,-0.505188,0.16546631
-0.044189453,0.37664795,-0.3994751
1.763916,-2.0,1.999939
-0.088378906,-1.0977173,0.13690186
0.87939453,-0.47369385,0.42889404
-0.32543945,0.5512085,-0.034973145
0.42260742,-0.1843872,-0.37091064
0.7307129,-1.8838501,0.76361084
0.5595703,-0.81744385,-0.44561768
0.8288574,-0.31304932,0.15203857
-0.12915039,-0.35040283,0.08001709
-0.14819336,-0.036193848,-0.55841064
1.0212402,-1.3699341,-0.15533447
0.013671875,-0.41485596,0.43695068
0.33032227,-0.22711182,0.116882324
-0.43701172,0.39959717,-0.09918213
1.9951172,-2.0,0.40985107
0.039794922,-1.255188,0.70233154
0.59472656,-0.13580322,0.09979248
0.43164062,-0.8899536,-0.18463135
-0.37548828,0.46038818,-0.49517822
1.999939,-1.305481,1.2355347
-0.026123047,-1.0474243,-0.24176025
0.7956543,-0.67144775,0.31610107
-0.3425293,0.19622803,0.10247803
0.08251953,-0.03668213,-0.41363525
1.999939,-2.0,0.48724365
0.12402344,-0.9324341,-0.40753174
0.92211914,-0.47027588,0.22772217
-0.040283203,-0.3291626,0.039245605
0.17211914,0.11029053,-0.4607544
1.2529297,-2.0,0.99212646
0.53393555,-0.14434814,-0.053527832
0.41796875,-0.7991333,0.2929077
-0.3137207,0.5006714,-0.38702393
1.541748,-1.204895,0.062927246
0.29003906,-1.2153931,0.5309448
0.9621582,-0.5852661,0.01776123
0.25439453,-0.9866333,0.21136475
-0.49072266,0.7518921,0.22113037
0.3100586,0.21820068,-0.45928955
0.57177734,-0.95391846,0.0680542
0.20092773,-0.73443604,0.3241577
0.24731445,-0.11138916,0.19622803
-0.4169922,0.4418335,-0.2888794
1.999939,-2.0,0.2189331
0.25708008,-1.302063,0.098083496
0.8635254,-0.44195557,-0.078186035
0.07861328,-0.5335083,-0.116760254
-0.056640625,0.6000366,-0.24346924
1.999939,-2.0,-0.9500122
0.359375,-0.9924927,-0.56622314
0.6921387,-0.53985596,0.08538818
-0.24389648,0.3085327,-0.08282471
0.1508789,0.04925537,-0.206604
1.5910645,-2.0,1.0822144
0.73535156,-0.7461548,-0.33184814
0.7939453,-0.67437744,0.05633545
-0.21166992,-0.1116333,0.045837402
0.5258789,0.293396,-0.55426025
0.96533203,-1.4973755,-0.37628174
0.40405273,-0.44854736,0.58636475
0.38232422,-0.6477661,0.24798584
-0.6645508,0.6461792,-0.55303955
1.999939,-0.8701782,-1.848938
-0.21850586,-1.1123657,0.8554077
0.9489746,-0.66070557,0.22161865
0.2241211,-0.61798096,-0.3164673
-0.25073242,0.55218506,0.1630249
1.347168,-0.49493408,-0.11016846
0.7023926,-1.3215942,-0.1963501
0.12011719,-0.6453247,0.3085327
0.025146484,0.13031006,0.2682495
-0.39501953,0.41741943,-0.5923462
1.999939,-2.0,1.999939
0.06225586,-0.8928833,-0.23638916
0.8911133,-0.12872314,0.418396
-0.46313477,-1.0669556,-0.35357666
0.22021484,0.3834839,-0.24932861
1.999939,-2.0,1.999939
0.12719727,-0.61016846,-0.3008423
0.6352539,-1.1380005,0.23651123
-0.19262695,0.39837646,-0.1963501
-0.07324219,-0.222229,-0.31817627
1.999939,-1.4529419,0.888855
-0.22631836,-1.0918579,-0.44708252
1.1733398,-0.32110596,0.33563232
-0.11694336,-0.5239868,-0.20587158
0.10180664,0.15423584,-0.69659424
1.4331055,-2.0,1.999939
0.23876953,-0.31304932,-0.007385254
0.57128906,-1.0913696,0.19793701
0.23168945,0.04949951,-0.00079345703
0.091308594,-0.20123291,-0.6694946
1.9221191,-2.0,0.5499878
0.14453125,-0.85821533,-0.49224854
0.77319336,-0.58062744,0.26116943
-0.03930664,-0.5679321,-0.062072754
0.17651367,0.20770264,-0.5371704
1.732666,-2.0,1.9491577
0.24902344,-0.39141846,-0.11407471
0.43530273,-1.1443481,0.30828857
0.28027344,-0.0012817383,0.07513428
-0.08886719,-0.16583252,-0.45220947
1.715332,-2.0,0.72406006
0.33032227,-0.93829346,-0.5376587
0.55322266,-0.48150635,0.33953857
0.29248047,-0.75079346,-0.21173096
-0.023925781,0.41497803,-0.38482666
1.999939,-2.0,0.6600952
0.4650879,-0.65826416,-0.7312622
0.43652344,-1.0134888,0.24920654
0.3347168,-0.23809814,0.040222168
-0.29492188,0.17059326,-0.12554932
1.923584,-2.0,0.38104248
0.3720703,-1.2217407,-0.1560669
0.5227051,-0.041809082,0.1876831
0.3503418,-0.9883423,0.17303467
-0.115722656,0.1552124,-0.0881958
0.5852051,-0.5498657,-0.1675415
1.0930176,-1.7217407,-0.04937744
-0.0021972656,-0.7046509,0.070251465
0.6047363,-0.5149536,0.5006714
-0.5822754,0.37054443,-0.23272705
1.999939,-1.5723267,-1.4180298
0.04638672,-1.2871704,0.46820068
0.5437012,-0.008850098,0.13763428
0.4038086,-0.9258423,0.012145996
-0.06616211,0.20281982,0.08148193
0.99975586,-0.1338501,-0.022766113
0.7961426,-1.4597778,-0.105041504
0.23803711,-0.6890259,0.27972412
0.47753906,-0.2156372,0.28826904
-0.44140625,0.15423584,-0.31427002
1.999939,-2.0,-1.920227
0.35742188,-1.6956177,0.030456543
0.7023926,-0.116760254,0.066833496
0.4008789,-0.47833252,-0.062316895
-0.39208984,0.63690186,-0.10723877
1.999939,-2.0,1.999939
-0.37109375,0.79901123,0.034118652
1.3093262,0.09857178,-0.10650635
0.37963867,-1.2893677,-0.7271118
0.40112305,-0.8569946,0.6132202
0.29492188,0.007019043,-0.027404785
-0.39453125,0.2880249,-0.22711182
1.7768555,-2.0,-0.5720825
0.1430664,-1.2859497,0.3847046
0.6152344,-0.1506958,0.15911865
0.26342773,-0.8262329,-0.29742432
0.07080078,0.64471436,-0.035949707
1.999939,-1.364563,0.5084839
0.22509766,-0.9468384,-0.48321533
0.41625977,-0.7234497,0.2748413
0.22802734,-0.061340332,0.032165527
-0.4638672,0.19207764,-0.6668091
1.5087891,-2.0,1.999939
-0.014160156,-0.94537354,-0.018859863
0.6557617,-0.24127197,0.42694092
0.32373047,-0.7427368,-0.17803955
-0.10083008,0.16131592,-0.26153564
1.999939,-1.0552368,0.0053100586
0.08178711,-0.88946533,-0.21929932
0.3269043,-0.33111572,0.32122803
0.36108398,-0.21734619,0.06463623
-0.2199707,0.1359253,-0.4175415
1.7878418,-2.0,1.999939
0.024902344,-0.8833618,-0.37994385
0.6040039,-0.2979126,0.40057373
0.08300781,-0.74591064,-0.16900635
-0.05908203,0.50286865,-0.13311768
1.999939,-2.0,1.999939
0.28466797,-0.39996338,-0.41607666
0.24316406,-1.0249634,0.4454956
0.30664062,0.07171631,-0.10870361
-0.30615234,0.04437256,-0.47198486
1.999939,-2.0,0.6461792
0.34155273,-0.81378174,0.2296753
0.72094727,-0.35113525,0.15130615
0.16796875,-0.8584595,-0.042297363
-0.1418457,0.5084839,-0.008117676
0.97436523,-0.3213501,0.43695068
0.44506836,-1.3533325,-0.6399536
0.3413086,-0.9143677,0.52386475
0.25610352,0.059020996,0.028747559
-0.4326172,0.29608154,-0.206604
1.999939,-1.133606,-1.173645
0.39648438,-1.2659302,0.43988037
0.72924805,-0.2852173,0.14935303
0.45214844,-0.57891846,0.016296387
-0.3125,0.44525146,-0.023498535
0.50341797,-0.008605957,0.19476318
0.9772949,-1.3074341,-0.3760376
0.29125977,-0.7337036,0.33441162
0.28515625,-0.24151611,0.20428467
-0.40625,0.22454834,-0.23443604
1.3139648,-1.0183716,-0.54156494
0.5866699,-1.4949341,0.36688232
0.54663086,-0.30645752,0.1720581
0.44580078,-0.7317505,-0.09527588
-0.2836914,0.66741943,-0.015930176
0.7529297,-0.53912354,0.2748413
0.64282227,-1.2944946,-0.69854736
0.30688477,-0.878479,0.42425537
0.36889648,-0.070617676,0.027526855
-0.26293945,0.27313232,-0.06842041
1.999939,-2.0,-0.5298462
0.19140625,-1.3650513,0.946228
0.57714844,-0.48687744,0.090270996
0.39916992,-0.7007446,0.13348389
-0.068115234,0.38128662,-0.2510376
0.98413086,-0.9614868,0.46746826
0.6843262,-0.87872314,-0.06573486
0.19604492,-0.85357666,0.1539917
0.3408203,-0.19610596,0.19378662
-0.18701172,-0.109191895,-0.52716064
1.0456543,-2.0,1.5387573
0.37524414,-1.0735474,-0.41949463
0.64208984,-0.5508423,0.34783936
0.20483398,-0.66778564,-0.1416626
0.01953125,0.44354248,-0.38482666
1.999939,-2.0,1.4467163
0.29541016,-0.6421509,-0.18267822
0.42651367,-1.0547485,0.26019287
0.28295898,0.024841309,0.32977295
-0.2763672,-0.010070801,-0.13433838
1.999939,-2.0,-2.0
0.12207031,-1.347229,0.6976929
0.55078125,-0.52130127,-0.24249268
0.15722656,-0.489563,0.028503418
-0.1586914,0.1930542,-0.38653564
