accelX,accelY,accelZ
0.060791016,-1.0149536,-0.11236572
0.049316406,0.51312256,-0.013244629
0.05126953,0.05218506,-0.17120361
0.017822266,-2.0,-0.7280884
0.47216797,-2.0,-0.22467041
0.33129883,-0.80914307,-0.14239502
0.028076172,0.14227295,-0.34527588
0.09399414,0.010192871,-0.007873535
1.6191406,-2.0,-0.536438
0.92456055,-2.0,-0.35455322
-0.012207031,-0.25201416,-0.3418579
-0.19458008,-0.17681885,-0.043762207
0.16113281,0.19671631,0.36346436
-0.009765625,-2.0,-1.1726685
0.24536133,-2.0,-0.16363525
0.21850586,-0.30010986,0.121520996
0.16210938,0.023132324,-0.35455322
-0.15698242,-0.01373291,-0.31329346
1.2475586,-2.0,-0.6555786
0.3647461,-2.0,-0.35333252
0.14575195,0.23846436,-0.09112549
-0.017333984,-0.2883911,-0.31427002
-0.16772461,-0.1104126,0.5018921
-0.68115234,-2.0,-0.4902954
-0.011474609,-2.0,-0.28668213
0.13061523,0.050964355,-0.13580322
0.123046875,0.078063965,-0.270813
0.071777344,-0.20269775,-0.39239502
0.73706055,-2.0,-0.31378174
0.40625,-1.8650513,-0.1585083
-0.095947266,0.96795654,0.12615967
-0.14379883,-0.12628174,-0.40020752
-0.030029297,-0.66534424,-0.28155518
0.3798828,-1.8152466,-0.1885376
0.018310547,-1.0825806,-0.01763916
0.037109375,0.33221436,-0.032287598
0.10253906,0.11541748,0.03338623
0.17041016,-1.2051392,-1.3079224
-0.5349121,-2.0,-0.50494385
-0.23828125,-0.9824829,-0.24053955
-0.08203125,-0.08135986,0.013122559
0.21166992,0.039245605,-0.27056885
-0.140625,-2.0,-1.8677368
0.90405273,-2.0,-0.5462036
-0.067871094,-0.6416626,-0.04815674
0.0087890625,0.22015381,-0.05645752
0.01928711,0.047790527,-0.14654541
1.1972656,-2.0,-1.0523071
0.0703125,-1.8994751,-0.3604126
0.068115234,-0.28936768,-0.09991455
-0.18383789,-0.32403564,-0.11627197
0.118896484,0.061950684,0.03387451
1.0124512,-2.0,-0.66656494
0.703125,-2.0,-0.35430908
0.2355957,-0.6057739,0.1954956
0.1340332,0.25872803,-0.093322754
-0.0014648438,0.043395996,-0.15679932
1.7314453,-2.0,-0.90704346
-0.03955078,-1.87677,-0.503479
-0.033447266,0.1149292,0.039489746
-0.23071289,-0.44683838,-0.15679932
0.0146484375,0.08734131,0.34295654
-0.3383789,-2.0,-0.32159424
0.29296875,-2.0,-0.58428955
-0.10546875,-0.006652832,-0.07672119
0.20654297,0.23016357,-0.30059814
0.10986328,-0.18511963,-0.038146973
1.8293457,-2.0,-0.8386841
0.3486328,-2.0,-0.21124268
0.171875,0.3944702,-0.06719971
-0.15771484,-0.4343872,-0.21832275
-0.09008789,-0.018859863,0.4725952
0.20605469,-2.0,-0.5708618
0.12841797,-2.0,-0.22589111
-0.00024414062,-0.18487549,-0.047180176
-0.037597656,0.047058105,-0.39752197
-0.0949707,-0.3262329,-0.6067505
0.6340332,-2.0,-0.5857544
0.09423828,-1.8098755,-0.22833252
0.022216797,0.7543335,0.06854248
-0.23925781,-0.29205322,-0.25054932
-0.19238281,-0.54351807,0.5951538
-0.3840332,-1.6882935,-0.2263794
-0.14770508,-1.2720337,-0.10235596
0.24438477,-0.05596924,-0.018371582
0.26000977,-0.116760254,-0.21612549
0.43603516,-0.5588989,-1.0581665
-0.25439453,-2.0,-0.27423096
0.03149414,-1.5996704,-0.19659424
-0.061035156,0.2909546,0.16375732
-0.0061035156,-0.2925415,-0.4031372
-0.07128906,-0.23834229,0.23114014
-0.17114258,-2.0,-0.27130127
-0.099121094,-1.5576782,-0.3501587
0.08935547,-0.3953247,-0.03741455
0.15209961,-0.03765869,-0.6819458
-0.37231445,-0.7217407,-0.8682251
0.049072266,-2.0,-0.61724854
0.055908203,-1.7671509,-0.06085205
0.26708984,0.2748413,-0.09844971
-0.103271484,-0.1963501,-0.190979
-0.5571289,-0.40753174,0.31097412
-0.37182617,-1.6126099,-0.04156494
0.3671875,-1.1633911,-0.24053955
-0.24731445,-0.26226807,0.24676514
0.30981445,0.09661865,-0.14776611
0.78344727,-2.0,-0.60406494
0.37158203,-1.9776001,-0.41973877
-0.0068359375,-0.65997314,-0.08502197
-0.107666016,0.4179077,0.1149292
0.107177734,-0.03717041,0.029968262
-0.12402344,-2.0,-0.7305298
0.31225586,-2.0,-0.45147705
0.1730957,-0.90753174,-0.0154418945
0.16821289,0.25115967,-0.043762207
0.26757812,-0.06427002,-0.00079345703
0.8703613,-2.0,-0.7703247
0.49121094,-2.0,-0.3850708
-0.10546875,-0.08380127,-0.017150879
-0.16918945,-0.13726807,0.010925293
0.005859375,-0.03302002,0.3048706
-0.29736328,-2.0,-0.25860596
0.41992188,-2.0,-0.36114502
-0.140625,-0.5269165,-0.028625488
0.10595703,0.09661865,-0.2029419
0.20239258,-0.11968994,-0.047668457
1.2475586,-2.0,-0.9495239
0.3010254,-1.885315,-0.38946533
0.0056152344,-0.0025024414,-0.066223145
-0.18432617,-0.19146729,-0.08135986
-0.038330078,0.044128418,0.37982178
-0.81396484,-2.0,0.03338623
0.061279297,-1.8650513,-0.40289307
-0.26757812,-0.40704346,0.14251709
0.024658203,0.05316162,-0.3640747
0.079589844,-0.5713501,-0.7241821
-0.0056152344,-2.0,-0.3196411
-0.045654297,-1.6785278,0.14324951
-0.015136719,0.5499878,-0.0056762695
-0.1652832,-0.3418579,-0.077697754
0.5480957,-1.3892212,-0.725647
1.0480957,-2.0,-0.14434814
0.34765625,-1.2686157,0.014587402
0.07128906,0.21966553,-0.15899658
0.0925293,0.0067749023,-0.40777588
0.010498047,-1.9700317,-0.9356079
-0.11230469,-1.729065,-0.5366821
-0.07714844,-0.79034424,0.050720215
0.0126953125,0.46868896,0.1161499
0.38208008,0.03387451,-0.17364502
0.28466797,-2.0,-0.65216064
0.171875,-2.0,-0.51226807
0.040039062,-0.81817627,0.08929443
0.22875977,0.5482788,-0.14874268
0.0029296875,0.04901123,0.039489746
0.48095703,-2.0,-0.9248657
-0.19970703,-1.8084106,-0.34405518
-0.20751953,-0.51226807,-0.21368408
-0.025878906,0.27288818,0.14959717
0.04711914,0.017028809,-0.07110596
0.5515137,-2.0,-1.008606
0.829834,-2.0,-0.5203247
0.38232422,-1.1611938,0.12664795
0.15014648,0.31976318,-0.12237549
0.29492188,-0.17486572,-0.13336182
0.068359375,-1.935852,-1.06427
-0.44213867,-1.9031372,-0.20758057
-0.26635742,-0.7581177,-0.17901611
-0.09008789,0.16497803,0.10760498
0.19873047,0.011657715,-0.054260254
0.6022949,-2.0,0.06878662
0.5119629,-2.0,-0.5964966
0.38183594,-0.8777466,0.17474365
0.16186523,0.41766357,-0.3555298
-0.09277344,0.06561279,-0.16485596
1.0617676,-2.0,-0.5471802
0.0048828125,-2.0,-0.17388916
0.064941406,-0.27471924,-0.032287598
-0.01977539,0.28656006,0.08319092
0.0690918,-0.16705322,0.070251465
-0.10424805,-2.0,-0.2288208
0.111816406,-1.6018677,-0.40777588
-0.14550781,-0.44488525,0.028503418
0.044921875,0.13079834,-0.38531494
0.13793945,-0.9795532,-0.82769775
-0.06665039,-2.0,-0.4043579
-0.03173828,-1.7227173,-0.05230713
0.072753906,0.18011475,-0.05255127
-0.059814453,-0.20074463,-0.10821533
-0.018798828,-1.0095825,-0.24420166
0.5449219,-1.7022095,-0.089660645
-0.006591797,-1.1514282,-0.19390869
0.095703125,-0.2654419,0.03289795
0.21728516,0.039978027,-0.19122314
0.17236328,-1.0862427,-0.62091064
0.083740234,-2.0,-0.09918213
0.23266602,-1.4668579,-0.13775635
-0.3046875,-0.27056885,0.10369873
0.05883789,0.043640137,0.012878418
0.22070312,-1.1384888,-0.49420166
0.08154297,-1.9644165,-0.12554932
0.032226562,-1.3840942,-0.093566895
-0.05102539,-0.04937744,-0.0713501
0.038085938,0.03363037,-0.30596924
0.46777344,-0.923645,-1.0029907
0.3798828,-2.0,-0.57037354
0.0146484375,-1.3010864,-0.14630127
0.023925781,-0.0044555664,-0.18048096
-0.2541504,-0.347229,-0.10406494
-0.052734375,-0.7229614,-0.34991455
-0.107666016,-1.7036743,-0.19122314
-0.048095703,-1.3306274,-0.23687744
0.11303711,-0.3508911,-0.19537354
-0.12646484,0.07220459,-0.04156494
0.36010742,-0.8352661,-0.8255005
-0.08862305,-1.8870239,-0.43267822
0.1953125,-1.4299927,-0.051330566
-0.1574707,0.042663574,-0.093566895
-0.30273438,-0.30792236,-0.00030517578
-0.16259766,-0.6387329,0.22747803
-0.5522461,-1.8416138,-0.44683838
-0.30541992,-1.3091431,-0.25079346
0.06201172,-0.2859497,0.1251831
0.11206055,0.057556152,-0.22515869
-0.05493164,-0.7595825,-0.9614868
-0.42895508,-2.0,-0.07110596
-0.04296875,-1.5222778,-0.03765869
0.055908203,0.2909546,0.06365967
-0.2944336,-0.15704346,-0.108947754
-0.09814453,-1.0322876,-0.90875244
0.2475586,-2.0,-0.15435791
0.18554688,-1.1226196,-0.09259033
0.049316406,-0.18218994,0.0028686523
0.11816406,-0.025939941,-0.16973877
-0.04345703,-0.94488525,-0.65338135
-0.1472168,-2.0,-0.25250244
0.13500977,-1.5657349,0.10662842
-0.15844727,0.22015381,-0.045959473
-0.12573242,-0.37042236,-0.094055176
0.37109375,-1.5066528,-0.92144775
0.2775879,-1.6755981,-0.42022705
0.08642578,-1.1582642,-0.15167236
-0.09033203,-0.14898682,-0.002746582
0.1550293,0.004333496,-0.18927002
0.5085449,-1.7276001,-0.59747314
-0.35839844,-1.6868286,-0.39312744
-0.1340332,-1.0166626,-0.09527588
0.2121582,0.19207764,0.0053100586
-0.041748047,-0.16656494,-0.21929932
0.60961914,-2.0,-0.40045166
0.36914062,-2.0,-0.5042114
-0.04321289,-1.1231079,-0.028381348
0.1796875,-0.18682861,-0.08013916
0.24389648,-0.019104004,-0.23760986
0.08496094,-1.3777466,-0.6824341
-0.2211914,-1.9387817,-0.22662354
-0.09643555,-1.3816528,0.17718506
0.0546875,0.08001709,-0.07232666
0.0871582,-0.3171997,-0.2456665
-0.036132812,-1.2456665,-0.78497314
0.4777832,-1.7766724,-0.4199829
-0.07739258,-1.2485962,-0.26690674
-0.10229492,-0.35894775,-0.1951294
0.12890625,0.027526855,-0.028381348
-0.13256836,-0.66729736,-1.0476685
-0.11645508,-2.0,-0.4163208
-0.0036621094,-1.8782349,-0.058410645
-0.09838867,0.046813965,-0.08843994
0.22705078,0.09832764,0.02532959
-0.33520508,-0.18829346,0.006286621
-0.037353516,-2.0,-0.5840454
-0.109375,-1.8738403,-0.35528564
-0.0075683594,-0.7268677,-0.13726807
-0.13598633,0.26898193,-0.003479004
0.40405273,-0.22052002,-0.023010254
1.175293,-2.0,-0.61920166
0.5822754,-1.8447876,-0.41851807
0.11450195,-0.45318604,-0.10015869
-0.10083008,0.18475342,0.018737793
0.023925781,-0.120910645,0.082214355
0.17382812,-2.0,-1.039856
0.5776367,-2.0,-0.34796143
0.14648438,-1.1228638,-0.17486572
0.0,0.07635498,-0.031799316
0.15185547,-0.010559082,-0.10797119
0.50219727,-1.562561,-0.56988525
0.1574707,-1.850647,-0.33721924
-0.20385742,-1.0637817,-0.09869385
0.052246094,0.42132568,0.10858154
0.0703125,-0.116760254,-0.15216064
0.19458008,-1.6484985,-0.46148682
0.55322266,-1.866272,-0.2793579
0.061523438,-1.1555786,0.038024902
0.1027832,0.05218506,0.040222168
0.12597656,-0.08428955,-0.25372314
-0.26586914,-1.3684692,-0.77471924
-0.5336914,-1.8760376,-0.24371338
-0.028808594,-1.5291138,0.09124756
0.07543945,0.35198975,0.12322998
0.039794922,-0.086242676,-0.054748535
0.34692383,-1.3079224,-0.5195923
0.5793457,-1.421936,-0.39898682
0.11010742,-1.1526489,-0.13092041
-0.15258789,-0.0051879883,-0.10601807
0.071777344,0.026306152,-0.20684814
-0.49780273,-1.5674438,-0.9780884
-0.29077148,-1.9368286,-0.3242798
-0.11621094,-1.3411255,0.020935059
0.16748047,0.070251465,0.04534912
-0.099121094,-0.2756958,-0.23321533
-0.3359375,-1.0430298,-0.1560669
0.03515625,-1.645813,0.13494873
-0.08203125,-1.2151489,-0.12310791
-0.1237793,-0.6038208,-0.04425049
-0.12426758,0.11248779,-0.10626221
0.10839844,-0.17462158,0.054382324
0.93359375,-2.0,-0.53570557
0.0715332,-2.0,-0.25494385
-0.080566406,-0.3118286,-0.16949463
-0.0056152344,-0.0044555664,0.03289795
-0.050048828,0.1828003,0.3522339
0.016113281,-2.0,-0.48760986
0.16845703,-2.0,-0.20172119
0.03125,-0.6790161,-0.2354126
-0.043701172,0.22796631,-0.21148682
0.2055664,-0.505188,-0.394104
0.4182129,-2.0,-0.8237915
-0.26513672,-2.0,-0.1729126
0.09326172,-0.010559082,0.21234131
0.2626953,0.20379639,-0.11798096
-0.20654297,-0.15753174,0.18841553
-0.3857422,-2.0,-0.69610596
0.2409668,-1.7324829,-0.37091064
0.19848633,-0.7173462,0.17303467
0.13623047,0.16693115,0.049987793
0.1940918,-0.29107666,-0.23809814
0.35375977,-2.0,-0.5166626
0.31396484,-1.873352,-0.0025024414
-0.03100586,-0.22003174,0.10784912
0.06762695,0.32684326,0.055358887
-0.09301758,-0.04937744,0.3053589
-0.8742676,-2.0,-0.109191895
0.35375977,-1.888977,-0.5083618
-0.009765625,-0.8374634,0.06854248
0.040527344,0.0914917,-0.12750244
0.44091797,-0.070617676,-0.09454346
0.5366211,-2.0,-0.85528564
-0.057128906,-1.9856567,-0.29742432
-0.26098633,-0.65338135,-0.058166504
0.16137695,0.22235107,0.14910889
-0.024902344,-0.013244629,-0.06524658
0.029541016,-2.0,-0.5471802
0.6281738,-2.0,-0.45391846
0.09765625,-1.1174927,-0.21783447
0.11279297,-0.16802979,0.08148193
0.27172852,0.0048217773,-0.27960205
-0.025878906,-1.284729,-0.60284424
0.21777344,-1.8355103,-0.6045532
-0.12451172,-1.3633423,-0.10675049
-0.12915039,0.199646,0.16619873
-0.20483398,-0.1831665,-0.12042236
0.46411133,-1.2202759,-0.48199463
0.72021484,-2.0,-0.64630127
0.10424805,-1.0759888,-0.23321533
0.11621094,-0.16973877,-0.06524658
0.08154297,-0.018615723,-0.14996338
0.26416016,-1.0361938,-1.0025024
-0.107177734,-2.0,-0.23687744
-0.041992188,-1.3364868,-0.00079345703
-0.02709961,0.23162842,-0.06427002
-0.1965332,-0.26348877,-0.011291504
0.45507812,-1.1445923,-0.7686157
0.6894531,-2.0,-0.21710205
0.12817383,-1.288147,-0.10040283
0.15771484,0.23065186,-0.14874268
0.00048828125,0.062927246,-0.24664307
-0.095947266,-1.2554321,-0.9783325
-0.14794922,-2.0,-0.35821533
-0.24121094,-1.3008423,0.0993042
0.30444336,0.3102417,0.06585693
