accelX,accelY,accelZ
0.36328125,-2.0,-0.94195557
0.31152344,-2.0,-0.24786377
-0.31225586,-0.78790283,0.07244873
0.041748047,-0.082336426,-0.04498291
-0.049316406,0.19403076,0.014831543
-0.29418945,-0.7161255,-0.41363525
-0.27490234,-2.0,-0.21368408
-0.076171875,-1.4260864,-0.21905518
0.36621094,-0.07354736,-0.17120361
0.0,0.29559326,-0.14312744
0.12109375,-0.05645752,-0.17486572
1.842041,-2.0,0.46624756
0.17553711,-1.9468384,-0.07745361
-0.034179688,-0.756897,-0.05279541
-0.18725586,0.13568115,-0.14971924
-0.15185547,-0.04034424,0.00091552734
-0.22045898,-0.65045166,-0.62164307
-0.030761719,-2.0,0.05706787
-0.071777344,-1.6409302,-0.1843872
0.22802734,-0.15338135,-0.120910645
0.15527344,0.35931396,-0.12384033
0.19165039,-0.06060791,-0.10284424
1.999939,-2.0,0.37200928
-0.026855469,-1.7478638,-0.49420166
-0.111816406,-0.89434814,-0.01739502
-0.049560547,0.17913818,-0.17340088
-0.080078125,-0.05670166,0.024841309
-0.28759766,-0.3821411,-0.7617798
0.37548828,-2.0,0.26727295
-0.14868164,-1.7105103,-0.39508057
0.18896484,-0.49957275,-0.17681885
0.21557617,0.3768921,-0.14898682
0.083496094,0.03753662,-0.024963379
0.7038574,-2.0,-0.92315674
-0.32763672,-2.0,-0.45635986
0.07519531,-1.0879517,0.11248779
-0.1652832,0.08099365,-0.21368408
0.0029296875,0.04437256,0.0053100586
-0.46557617,-0.2210083,-1.0335083
-0.40722656,-2.0,-0.35357666
0.025878906,-1.416565,-0.12872314
0.053466797,-0.47711182,-0.062561035
0.115234375,0.24163818,-0.18829346
0.4206543,-0.14019775,0.14227295
0.50097656,-2.0,-0.32037354
0.67041016,-1.6548462,-0.27301025
-0.16381836,-1.0430298,0.13665771
0.012207031,0.05999756,-0.1182251
-0.16748047,-0.0032348633,-0.020812988
-0.17236328,-0.29766846,-0.5322876
-0.009765625,-2.0,-0.03375244
0.0012207031,-1.7817993,-0.2539673
-0.018554688,-0.6165161,-0.12896729
0.27685547,0.36639404,-0.16607666
0.2548828,0.04534912,-0.0791626
-0.14453125,-1.279602,-0.28302002
0.017578125,-2.0,-0.31256104
-0.09277344,-1.3186646,0.15985107
-0.12866211,-0.061584473,-0.11895752
-0.118652344,0.11541748,-0.09112549
-0.067871094,-0.12286377,-0.0037231445
0.42626953,-2.0,-0.2835083
-0.28710938,-2.0,-0.20269775
0.26416016,-0.63946533,-0.19195557
0.14404297,0.19891357,-0.13873291
0.24047852,0.007019043,-0.07989502
-0.00048828125,-0.25787354,-0.38116455
1.0913086,-2.0,0.2662964
0.052246094,-1.7075806,0.10028076
-0.18896484,-0.6235962,-0.053527832
-0.021728516,0.30340576,-0.070617676
-0.091796875,-0.051574707,0.06512451
-0.052001953,-1.0081177,-0.6157837
-0.6660156,-2.0,-0.16241455
-0.07519531,-1.4360962,-0.07867432
0.13720703,-0.17901611,-0.30377197
0.29736328,0.20794678,-0.06549072
0.3173828,0.010681152,-0.06085205
1.7609863,-2.0,-0.9607544
0.24243164,-1.9744263,-0.4019165
-0.19628906,-0.87335205,0.1071167
-0.017333984,0.22625732,-0.08428955
-0.20703125,0.05657959,-0.07574463
-0.08569336,-0.71588135,-0.6021118
-0.15942383,-2.0,-0.23736572
-0.123535156,-1.9212036,-0.24932861
0.17260742,-0.16656494,-0.13897705
0.087402344,0.26116943,-0.1560669
0.34057617,0.030700684,-0.10699463
-0.21679688,-2.0,-0.76031494
0.43164062,-2.0,-0.27789307
-0.1784668,-0.99346924,0.10394287
0.037353516,-0.206604,-0.08770752
-0.17114258,0.08709717,-0.08428955
-0.036865234,-0.23565674,-0.17852783
0.15478516,-2.0,-0.21124268
-0.36694336,-2.0,-0.16705322
0.033691406,-0.89801025,-0.04107666
0.27197266,0.12860107,-0.17852783
0.114990234,0.04949951,-0.105285645
0.057373047,-0.30352783,-0.3887329
0.84277344,-2.0,0.08270264
0.20605469,-1.6570435,0.13470459
-0.13134766,-0.2444458,-0.24420166
0.055664062,0.07733154,-0.031799316
-0.20239258,-0.11846924,0.08758545
-0.44482422,-2.0,-0.18341064
-0.31884766,-2.0,-0.26226807
0.15576172,-0.9812622,-0.2107544
0.10986328,-0.16851807,-0.06427002
0.16699219,0.16546631,-0.21539307
0.17211914,-0.078186035,-0.38165283
1.6311035,-2.0,0.8222046
0.05810547,-1.4998169,-0.34088135
-0.084228516,-0.616272,-0.27911377
-0.084228516,0.22259521,-0.074279785
-0.068115234,-0.090148926,0.07122803
-0.31298828,-1.2485962,-0.7334595
-0.5734863,-2.0,-0.14971924
0.04736328,-1.4263306,-0.16192627
0.0703125,-0.2210083,-0.16680908
0.19921875,0.109802246,-0.05718994
0.15527344,-0.009094238,-0.16827393
1.999939,-2.0,0.36053467
0.15185547,-1.9629517,-0.24542236
-0.21948242,-0.8118286,-0.0049438477
-0.00024414062,-0.00079345703,0.0211792
-0.106933594,-0.04034424,0.049743652
-0.26391602,-0.9776001,-0.72735596
-0.5534668,-2.0,0.12030029
0.1003418,-1.6345825,-0.112854004
0.08911133,-0.37286377,-0.11505127
0.27856445,0.05731201,-0.059143066
0.088378906,-0.049865723,-0.12652588
1.1677246,-2.0,-0.18341064
0.26831055,-1.894104,-0.44122314
-0.119628906,-1.1751099,0.047546387
-0.114746094,-0.07965088,-0.042297363
0.050048828,0.078552246,-0.09942627
-0.2241211,-0.30426025,-0.38458252
0.7788086,-1.982727,0.059753418
-0.096191406,-1.7241821,-0.5198364
0.109375,-0.8171997,-0.14776611
0.33032227,0.015319824,-0.15338135
-0.05859375,-0.04058838,-0.11578369
0.21582031,-0.41949463,-0.22418213
0.77246094,-1.6965942,0.20599365
0.23413086,-1.831604,0.04510498
-0.22924805,-0.69000244,-0.090148926
-0.0014648438,-0.09649658,0.0018920898
-0.08129883,0.019714355,-0.054504395
-0.15795898,-0.7005005,-0.6243286
0.008300781,-1.9268188,0.1618042
0.03515625,-1.4712524,-0.1843872
0.15454102,-0.3242798,-0.18585205
0.114990234,0.12176514,-0.10040283
0.2927246,0.047790527,-0.17388916
0.77319336,-2.0,-0.13018799
-0.17114258,-2.0,-0.20831299
-0.07006836,-0.9534302,0.113464355
0.0012207031,0.12542725,-0.10333252
-0.06616211,-0.05328369,0.034118652
-0.21801758,-0.38653564,-0.40753174
0.22924805,-1.8699341,0.15203857
0.0075683594,-1.7158813,-0.29742432
0.16577148,-0.6655884,-0.07647705
0.114990234,0.17889404,-0.1428833
0.123535156,-0.010803223,-0.1663208
-0.20947266,-1.1848755,-0.55352783
0.67211914,-2.0,-0.286438
-0.0048828125,-1.3357544,-0.003479004
-0.14013672,-0.5618286,-0.13189697
-0.17358398,0.22772217,-0.023742676
-0.022216797,-0.1362915,0.028503418
-0.12402344,-1.6133423,-0.7022095
-1.0400391,-2.0,-0.12188721
0.25585938,-1.414856,-0.1182251
0.0021972656,-0.15924072,-0.1560669
0.15722656,0.22137451,-0.15753174
0.1262207,-0.051818848,-0.21368408
1.999939,-2.0,1.2509155
0.042236328,-2.0,-0.010803223
-0.28955078,-0.71881104,-0.03277588
0.032470703,0.18255615,-0.066223145
-0.23217773,-0.043029785,0.04119873
-0.1003418,-0.72906494,-0.57281494
-0.5588379,-2.0,-0.21710205
-0.1237793,-1.829895,-0.16583252
-0.06958008,-0.16534424,-0.14556885
0.22949219,0.117126465,-0.11651611
0.2199707,-0.035217285,-0.19683838
1.999939,-2.0,0.89471436
0.12988281,-1.8919067,-0.13165283
-0.080078125,-0.62042236,-0.032287598
-0.12573242,0.24407959,-0.06744385
0.011474609,-0.04522705,0.0040893555
-0.39624023,-1.284729,-0.75909424
-0.6843262,-2.0,-0.21612549
0.16625977,-1.3858032,-0.18145752
-0.12402344,-0.097229004,-0.109680176
0.2668457,0.057800293,-0.058654785
0.10864258,-0.041809082,-0.1963501
1.5578613,-2.0,0.402771
0.010498047,-1.9553833,-0.29644775
-0.41723633,-0.9036255,-0.1519165
0.060546875,-0.005432129,-0.04425049
-0.22363281,-0.19390869,0.05340576
-0.07348633,-0.20513916,-0.31085205
0.21118164,-1.9404907,-0.23150635
-0.23608398,-1.796936,-0.03692627
-0.044189453,-0.62164307,-0.12677002
0.28564453,0.10296631,-0.13360596
0.20507812,0.12005615,-0.17144775
-0.46655273,-1.1506958,-0.2341919
0.09106445,-2.0,0.062438965
-0.06323242,-1.3150024,0.19769287
-0.080566406,-0.3328247,-0.0947876
-0.064208984,0.20477295,-0.07672119
0.03173828,-0.10455322,-0.040100098
0.014404297,-2.0,-0.9570923
-0.6218262,-2.0,-0.21929932
0.17578125,-0.880188,-0.08355713
0.22192383,0.09124756,-0.12213135
0.10888672,0.06317139,-0.08746338
-0.016845703,-0.29766846,-0.43585205
1.0910645,-1.9238892,0.33758545
-0.12670898,-1.6694946,0.17547607
-0.0546875,-0.43756104,-0.17095947
-0.03173828,0.27923584,-0.08306885
0.12695312,-0.20562744,0.20404053
-0.5361328,-1.6572876,-0.8411255
-0.5878906,-2.0,-0.14385986
-0.203125,-1.4231567,-0.14263916
0.2512207,-0.12774658,-0.18804932
0.08618164,0.34588623,-0.0569458
0.049316406,-0.14874268,-0.25054932
1.635498,-2.0,0.11517334
0.06567383,-1.8814087,-0.32452393
0.00048828125,-0.99468994,-0.023742676
-0.05517578,0.11883545,-0.055236816
-0.19213867,-0.008850098,-0.058410645
-0.1081543,-0.21929932,-0.11456299
0.4675293,-2.0,-0.0881958
-0.51904297,-2.0,-0.14923096
0.34179688,-0.6487427,-0.15484619
0.10083008,-0.07867432,-0.04473877
0.031982422,0.21942139,-0.1765747
0.27172852,-1.3230591,-0.378479
-0.16455078,-1.8220825,-0.038635254
0.123535156,-1.3157349,0.02532959
-0.08129883,-0.24908447,0.01361084
-0.12841797,0.13934326,-0.09161377
-0.0107421875,-0.18804932,0.0770874
0.34765625,-2.0,0.010192871
-0.48706055,-2.0,0.1317749
0.009033203,-0.8599243,-0.03326416
0.1899414,-0.0015258789,-0.13800049
-0.008544922,0.10736084,-0.15216064
0.2944336,-0.23175049,-0.27105713
0.7011719,-2.0,0.3805542
0.1081543,-1.6919556,-0.046936035
-0.17871094,-0.75860596,-0.039611816
-0.03955078,0.19744873,-0.019836426
0.03955078,-0.02545166,0.038757324
-0.33520508,-1.3359985,-0.6633911
-0.5227051,-2.0,-0.20220947
-0.11425781,-1.3811646,-0.19171143
-0.07836914,-0.18560791,-0.077941895
0.27978516,0.15985107,-0.12286377
0.2578125,0.11199951,-0.1272583
0.44189453,-2.0,-0.9841919
-0.22827148,-2.0,-0.4060669
-0.1743164,-0.9768677,0.019958496
-0.14624023,-0.0154418945,-0.020080566
0.026855469,0.07611084,-0.037902832
0.00048828125,-0.15631104,-0.09063721
1.4257812,-2.0,-0.25665283
-0.34960938,-2.0,-0.2131958
0.12133789,-0.69073486,-0.07281494
0.19799805,0.2843628,-0.13555908
0.15917969,0.07293701,-0.13946533
-0.030273438,-0.63897705,-0.16729736
0.50390625,-2.0,-0.06719971
0.016845703,-1.5088501,0.0446167
-0.0107421875,-0.2234497,-0.15093994
-0.111083984,0.18597412,-0.005432129
0.0126953125,-0.058410645,0.022155762
-0.88793945,-2.0,-0.9644165
-0.2998047,-2.0,-0.16925049
0.016845703,-0.8875122,-0.15167236
0.15161133,0.26068115,-0.11505127
0.21240234,0.058776855,-0.11114502
0.107910156,-0.30670166,-0.4121704
0.9147949,-2.0,0.41229248
0.0017089844,-1.5662231,-0.047180176
-0.06640625,-0.5366821,-0.066223145
-0.09106445,0.47283936,-0.077697754
-0.05053711,-0.14068604,0.06732178
-0.32299805,-1.9907837,-0.82940674
-0.6767578,-2.0,-0.066223145
0.17016602,-1.0637817,-0.11114502
0.13720703,-0.054260254,-0.11431885
0.09765625,0.055603027,-0.047180176
0.21948242,-0.008850098,-0.5010376
0.9042969,-2.0,0.20672607
0.103515625,-1.8574829,0.038757324
-0.13842773,-0.63653564,-0.13214111
0.018066406,0.1720581,-0.04547119
-0.079833984,-0.033996582,0.06903076
-0.04345703,-0.819397,-0.53912354
-0.4038086,-2.0,-0.14312744
-0.095458984,-1.6155396,-0.21832275
0.11401367,-0.18170166,-0.14971924
0.15820312,0.13739014,-0.1116333
0.27246094,0.14642334,-0.21881104
-0.35717773,-2.0,-0.6231079
0.5566406,-1.8999634,-0.41729736
-0.31152344,-1.3789673,0.07659912
-0.021240234,-0.34942627,-0.047912598
-0.13110352,0.07293701,-0.026428223
0.16040039,0.058288574,-0.016418457
-0.44580078,-2.0,-1.0025024
-0.44848633,-2.0,0.06488037
-0.014160156,-1.0979614,-0.28253174
0.36157227,-0.0005493164,-0.09454346
0.01171875,0.14544678,-0.16729736
0.17602539,-0.0154418945,-0.2571411
1.9150391,-2.0,0.260437
0.29467773,-1.9544067,-0.39752197
-0.23339844,-0.8970337,-0.058654785
-0.044677734,0.2345581,-0.045959473
-0.076660156,-0.0881958,0.0018920898
-0.034423828,-0.5376587,-0.5256958
-0.025634766,-1.7993774,-0.2786255
0.06347656,-1.8208618,-0.175354
-0.061523438,-0.35040283,-0.20635986
0.24487305,0.1564331,-0.085510254
0.22705078,0.026062012,-0.06866455
-0.096191406,-1.1514282,0.02166748
0.3671875,-1.8735962,-0.16314697
-0.22753906,-1.3423462,-0.007385254
0.04663086,-0.4368286,-0.14337158
-0.17919922,0.10858154,0.04437256
0.083740234,-0.0029907227,0.022155762
-0.98876953,-2.0,-0.5532837
-0.38598633,-2.0,0.0758667
0.01928711,-1.0601196,-0.12310791
0.25219727,0.20257568,-0.2456665
0.16333008,0.06390381,-0.15093994
-0.037841797,-0.12017822,-0.4595337
1.3942871,-2.0,0.47406006
-0.026367188,-1.6741333,-0.18121338
-0.17773438,-0.64849854,-0.08111572
0.119140625,0.24163818,-0.08282471
0.009033203,-0.08721924,0.08123779
-0.28320312,-0.8320923,-0.54571533
-0.48339844,-2.0,0.008972168
0.00024414062,-1.6355591,-0.05279541
0.0009765625,-0.28936768,-0.24273682
0.3557129,0.21600342,-0.0803833
0.103271484,0.10882568,-0.011779785
-0.18969727,-2.0,-0.8206177
-0.14404297,-2.0,-0.5689087
-0.18457031,-1.1370239,-0.028381348
0.11743164,0.012145996,-0.07550049
-0.27270508,0.054870605,-0.057922363
0.015625,-0.13287354,-0.24053955
0.1496582,-2.0,0.14202881
0.13232422,-2.0,-0.13409424
-0.017822266,-0.41168213,-0.22174072
0.3828125,0.06756592,-0.14312744
0.079589844,0.1251831,-0.113342285
0.030761719,-0.6699829,-0.15997314
0.15454102,-2.0,-0.12652588
0.07763672,-1.4795532,0.116882324
-0.15405273,-0.39678955,-0.16680908
0.041015625,0.2267456,-0.039123535
-0.18603516,-0.12554932,0.051696777
0.6328125,-2.0,-1.7424927
-0.83447266,-2.0,-0.25079346
0.30126953,-0.9871216,-0.0635376
-0.025390625,-0.17803955,-0.11431885
0.1965332,0.13690186,-0.17218018
0.08178711,-0.13775635,-0.35406494
1.3444824,-2.0,0.7218628
0.15112305,-2.0,-0.018127441
