accelX,accelY,accelZ
-0.040771484,-0.9758911,-0.024963379
-0.09692383,0.035339355,0.12908936
-0.6315918,-2.0,-0.07110596
-0.44580078,-1.8084106,-0.23345947
0.60424805,-0.43121338,0.09173584
0.27685547,0.4430542,-0.09454346
0.47851562,-0.49664307,0.11590576
0.5427246,-2.0,-0.2805786
-0.025878906,-1.737854,-0.04888916
-0.23779297,-0.042053223,0.13372803
0.15795898,0.09490967,0.007507324
0.44482422,-1.350647,-0.40777588
-0.3552246,-2.0,-0.24859619
0.2397461,-1.1089478,-0.34283447
0.072509766,0.23358154,-0.11529541
0.17480469,0.13690186,-0.09503174
-0.08691406,-2.0,-0.8027954
0.08129883,-2.0,-0.11798096
0.021972656,-1.1414185,-0.19244385
-0.33520508,0.43695068,-0.020080566
0.024902344,0.05999756,-0.043518066
-0.3022461,-2.0,-0.06744385
-0.35473633,-2.0,-0.074279785
0.2668457,-0.52593994,-0.31134033
0.091308594,0.340271,-0.19122314
0.18237305,-0.027893066,-0.08502197
0.7224121,-2.0,-0.094055176
0.12988281,-2.0,-0.13287354
-0.14428711,-0.7527466,-0.08331299
0.14233398,0.30975342,0.007507324
-0.27514648,-0.23370361,-0.21685791
-0.5932617,-2.0,-0.35040283
-0.19824219,-1.9243774,-0.17266846
0.0234375,-0.7156372,-0.07745361
0.2824707,0.43621826,-0.28179932
0.27856445,-0.22808838,-0.10479736
0.65112305,-2.0,-0.24884033
0.19384766,-1.9297485,-0.144104
-0.31225586,-0.31036377,0.050964355
0.31201172,0.24481201,0.19500732
0.17871094,-0.7390747,-0.52716064
-0.42578125,-2.0,-0.34039307
0.010498047,-1.5032349,-0.3201294
-0.092285156,-0.315979,0.02508545
0.29858398,0.33465576,-0.28277588
0.17944336,-0.9246216,-0.09649658
0.33642578,-2.0,-0.0947876
-0.023925781,-1.6709595,-0.23712158
-0.4050293,0.022399902,0.13104248
0.28149414,0.08709717,0.010437012
0.657959,-1.3086548,-0.5947876
-0.46411133,-2.0,-0.12213135
0.19946289,-1.222229,-0.35357666
-0.060546875,-0.093811035,-0.15997314
0.18066406,0.2850952,-0.10040283
-0.040527344,-1.8792114,-0.90875244
0.0,-2.0,-0.06964111
-0.18041992,-1.498352,-0.058410645
-0.19238281,0.078063965,0.08050537
0.043701172,-0.08111572,0.013122559
0.118652344,-1.6152954,0.28167725
-0.28735352,-2.0,-0.12530518
0.2915039,-1.2664185,-0.2991333
-0.009277344,0.09906006,-0.054748535
0.19946289,0.12835693,-0.1873169
-0.07861328,-2.0,-0.7415161
0.14086914,-2.0,-0.036193848
-0.10205078,-1.27594,-0.20343018
-0.4230957,0.26654053,0.04925537
0.09008789,0.0289917,0.0758667
-0.12646484,-2.0,0.22381592
-0.21948242,-2.0,-0.06427002
0.031982422,-0.9109497,-0.21685791
0.16040039,0.11273193,-0.21636963
0.31420898,-0.081848145,0.050720215
0.6723633,-1.8630981,-0.25054932
0.14697266,-1.992981,-0.15167236
-0.15698242,-0.7366333,-0.00079345703
-0.018554688,0.25946045,0.026794434
-0.30297852,-0.35943604,-0.38946533
-0.43774414,-2.0,-0.097717285
-0.100097656,-1.6697388,-0.22613525
0.1015625,-0.6001587,-0.13653564
0.29907227,0.23773193,-0.28131104
0.28735352,-0.4492798,0.12200928
0.40234375,-2.0,-0.11871338
-0.025878906,-1.6785278,-0.12896729
-0.19848633,-0.3406372,0.116882324
0.2590332,0.13812256,-0.13531494
0.39819336,-1.2610474,-0.6716919
-0.43359375,-2.0,-0.0725708
-0.009277344,-1.1570435,-0.34942627
-0.09814453,0.004333496,-0.089416504
0.29614258,0.17034912,-0.08404541
-0.2944336,-2.0,-0.7346802
-0.1015625,-2.0,0.06390381
-0.08984375,-1.1809692,-0.10235596
-0.1965332,0.20843506,0.035583496
-0.07324219,-0.0095825195,-0.0020141602
0.31030273,-2.0,0.29534912
-0.27026367,-2.0,0.024597168
0.028564453,-0.84210205,-0.2617798
0.20727539,0.14154053,-0.17022705
0.2758789,-0.051574707,-0.04473877
0.45092773,-2.0,0.08465576
0.1550293,-1.9700317,-0.11187744
-0.26049805,-0.49713135,0.020202637
0.045654297,0.17523193,-0.026916504
-0.30664062,-0.25860596,-0.2954712
-0.39624023,-2.0,-0.15679932
-0.24291992,-1.6170044,-0.26641846
0.11401367,-0.49664307,-0.12261963
0.21801758,0.25115967,-0.15118408
0.4260254,-0.52789307,0.16253662
0.4633789,-2.0,-0.2654419
0.035888672,-1.6502075,-0.21612549
-0.3388672,-0.17120361,0.19989014
0.21191406,0.08905029,-0.1362915
-0.041992188,-0.8467407,-0.6018677
-0.55322266,-2.0,-0.1572876
-0.0031738281,-1.3135376,-0.43389893
0.07470703,-0.097717285,-0.03643799
0.2475586,0.28289795,-0.13922119
-0.060546875,-1.3179321,-0.50494385
0.18554688,-2.0,-0.16192627
-0.043701172,-1.4204712,-0.1350708
-0.31469727,0.21038818,0.12030029
0.125,0.046569824,-0.086242676
0.7036133,-1.8650513,-0.031311035
-0.3935547,-2.0,-0.113586426
0.072021484,-1.237854,-0.2522583
0.20214844,0.18743896,-0.3255005
0.06738281,0.14031982,-0.015930176
0.012939453,-2.0,-0.7608032
0.15332031,-2.0,-0.14996338
-0.1237793,-1.0855103,-0.15899658
-0.26464844,0.32513428,0.015563965
-0.09082031,0.057556152,0.022155762
-0.7819824,-1.9265747,0.4298706
-0.2836914,-2.0,-0.1716919
0.12719727,-0.98150635,-0.20855713
0.06323242,0.3204956,-0.2444458
0.18041992,-0.097717285,-0.059631348
0.84228516,-2.0,-0.17803955
0.13574219,-1.8694458,-0.23370361
-0.09692383,-0.7131958,-0.09893799
-0.099853516,0.18817139,0.06072998
-0.11230469,-0.25958252,-0.48712158
-0.6418457,-2.0,-0.628479
-0.0690918,-1.6953735,-0.36553955
0.09423828,-0.7546997,-0.13360596
0.16772461,0.22113037,-0.2642212
0.40014648,-0.2576294,-0.034240723
0.72509766,-1.9517212,-0.17877197
0.26782227,-1.7581177,-0.22686768
-0.18383789,-0.6494751,-0.0115356445
-0.016357422,0.13763428,0.06097412
0.28833008,-0.5906372,-0.60821533
-0.35327148,-2.0,-0.4529419
-0.19750977,-1.4365845,-0.18658447
0.11987305,-0.394104,-0.12677002
0.25561523,0.17840576,-0.28009033
0.42578125,-0.77545166,-0.07208252
0.27807617,-2.0,-0.15216064
0.10424805,-1.687561,-0.054016113
-0.30273438,-0.35162354,0.06756592
0.026123047,0.08758545,-0.012756348
0.5187988,-1.0015259,-0.55841064
-0.29638672,-2.0,-0.25421143
-0.16430664,-1.1975708,-0.36187744
0.05078125,-0.2234497,-0.105529785
0.2763672,0.15252686,-0.08258057
-0.24169922,-1.5947876,-0.73687744
-0.18017578,-2.0,0.020446777
-0.088378906,-1.1987915,-0.15704346
-0.17822266,-0.12213135,0.12664795
0.05859375,0.028503418,-0.08453369
-0.049316406,-2.0,0.05291748
-0.19433594,-1.9841919,0.010925293
-0.005126953,-0.9807739,-0.24835205
0.07543945,-0.042297363,-0.17047119
0.25073242,0.1083374,-0.046447754
-0.44995117,-2.0,-1.0271606
-0.061279297,-1.742981,0.105163574
0.020996094,-1.0193481,-0.10748291
-0.19604492,-0.015930176,0.06072998
-0.07348633,0.01776123,0.04949951
-0.49682617,-2.0,0.6195679
-0.2097168,-1.9065552,-0.09967041
0.16845703,-0.8189087,-0.22491455
0.08178711,0.015075684,-0.11920166
0.13500977,0.051208496,-0.11553955
0.23022461,-2.0,-0.42559814
0.10595703,-1.781311,-0.002746582
-0.0041503906,-1.0567017,-0.06744385
-0.092041016,0.0368042,0.008972168
-0.01586914,0.015319824,-0.1675415
-0.1105957,-2.0,0.089782715
-0.27075195,-1.9934692,-0.07696533
0.12695312,-1.0108032,-0.18048096
0.14477539,0.11395264,-0.22052002
0.11694336,0.007019043,-0.12261963
0.30444336,-2.0,-0.19952393
0.016601562,-1.741272,0.0758667
-0.040771484,-1.015686,-0.069885254
-0.13867188,0.008239746,0.038269043
-0.03515625,-0.0960083,-0.13018799
-0.45214844,-2.0,0.16571045
0.5095215,-2.0,-0.14141846
0.104003906,-1.6148071,-0.15704346
-0.048339844,-0.6277466,-0.11529541
-0.22338867,0.246521,-0.10406494
0.13745117,-0.5388794,-0.40533447
-0.18359375,-2.0,-0.3657837
0.05053711,-1.3626099,-0.4060669
-0.12402344,-0.046447754,-0.105285645
0.27416992,0.24847412,-0.0960083
-0.2709961,-1.9724731,-0.7149048
0.09106445,-1.9663696,-0.051818848
-0.14355469,-1.1045532,-0.116760254
-0.3269043,-0.043273926,0.17132568
-0.16088867,0.016784668,-0.04058838
-0.57788086,-2.0,-0.21051025
0.012207031,-1.8486938,-0.050842285
0.14404297,-0.78692627,-0.19366455
0.3005371,0.2177124,-0.1795044
0.3930664,-0.37750244,0.11029053
0.42700195,-2.0,-0.2732544
0.16113281,-1.5933228,-0.14434814
-0.22973633,-0.26397705,0.18572998
0.037353516,0.17840576,0.007507324
0.31713867,-1.3945923,-0.024475098
-0.055664062,-2.0,-0.24127197
0.011474609,-1.0669556,-0.19415283
0.10253906,0.0993042,-0.18170166
0.103759766,0.17156982,-0.04083252
0.3125,-2.0,-0.3670044
0.15942383,-1.859436,0.039733887
-0.13574219,-0.8899536,0.038024902
0.008544922,0.24334717,0.015075684
-0.3647461,-0.14703369,-0.2288208
-0.48657227,-2.0,-0.2444458
-0.05908203,-1.635315,-0.25079346
0.07739258,-0.63848877,-0.097961426
0.23754883,0.2843628,-0.15045166
0.47509766,-0.64068604,0.11810303
0.7001953,-2.0,-0.09063721
-0.032714844,-1.5701294,-0.16827393
-0.2878418,-0.27911377,0.19769287
-0.048583984,0.15032959,0.010437012
0.6738281,-1.2771606,-0.67266846
-0.642334,-2.0,-0.1560669
0.030761719,-1.097229,-0.29400635
0.055664062,-0.12628174,-0.13848877
0.17480469,0.19573975,-0.14117432
-0.051513672,-2.0,-0.72979736
0.05493164,-1.9517212,-0.034973145
0.0107421875,-1.0847778,-0.050109863
-0.13769531,0.22796631,-0.012756348
-0.28881836,-0.1326294,-0.1897583
-0.4362793,-2.0,-0.44854736
0.022705078,-1.7383423,-0.13409424
-0.06518555,-0.6248169,-0.105285645
0.25341797,0.23406982,-0.23858643
0.20507812,-0.68170166,-0.09210205
0.3623047,-2.0,-0.116760254
0.022216797,-1.3963013,-0.066223145
-0.2211914,-0.0012817383,0.09320068
-0.06665039,0.0067749023,-0.022277832
-0.3137207,-1.763977,0.5116577
-0.09692383,-2.0,-0.09893799
0.005859375,-0.9356079,-0.17144775
0.17797852,0.19232178,-0.22027588
0.13330078,0.09979248,-0.015930176
0.74975586,-2.0,-0.3201294
0.08276367,-1.7590942,-0.1843872
-0.13916016,-0.8921509,-0.05621338
0.068847656,0.3168335,-0.038635254
-0.3552246,-0.09918213,-0.17803955
-0.31176758,-2.0,-0.49224854
-0.04663086,-1.9719849,-0.17926025
0.05493164,-0.6604614,-0.1807251
0.29858398,0.32440186,-0.27642822
0.20654297,-0.19683838,-0.05206299
0.7661133,-2.0,-0.28179932
0.10839844,-1.8023071,-0.21881104
-0.24975586,-0.3928833,0.1005249
0.16699219,0.18450928,-0.062561035
0.0041503906,-0.6577759,-0.70562744
-0.8059082,-2.0,-0.39801025
0.24121094,-1.3867798,-0.46417236
-0.041748047,-0.2131958,-0.09234619
0.16723633,0.20355225,-0.16534424
0.21655273,-1.1480103,-0.22027588
0.33691406,-2.0,-0.033996582
-0.061279297,-1.4512329,-0.27838135
-0.30151367,0.035095215,0.116882324
0.0031738281,0.013366699,-0.12261963
1.0283203,-1.4812622,-0.9168091
-0.44140625,-2.0,-0.20977783
0.1472168,-1.0037231,-0.34747314
0.14501953,-0.0115356445,-0.14141846
0.19628906,0.12322998,-0.10211182
-0.24243164,-1.9238892,-1.0232544
0.33251953,-2.0,-0.13336182
-0.01586914,-1.1611938,-0.17974854
-0.19580078,0.26483154,-0.0012817383
0.11669922,0.029724121,-0.07305908
0.767334,-2.0,0.36639404
-0.4567871,-2.0,-0.06060791
-0.53149414,-0.91900635,-0.190979
0.2548828,0.33099365,-0.25274658
0.08105469,0.026062012,-0.08746338
0.75390625,-2.0,-0.1873169
0.07324219,-1.7920532,-0.24932861
-0.22216797,-0.644104,-0.04425049
0.092285156,0.29364014,0.13616943
-0.19824219,-0.13604736,-0.24371338
-0.6586914,-2.0,-0.55596924
-0.0703125,-1.960022,-0.33648682
-0.24975586,-0.725647,0.039489746
0.39746094,0.5302124,-0.3838501
-0.032714844,-0.18609619,-0.113098145
1.0354004,-2.0,-0.08013916
0.1003418,-1.9089966,-0.19342041
-0.20214844,-0.47418213,-0.09893799
0.053710938,0.2711792,-0.018127441
-0.026611328,-0.5960083,-0.71759033
-0.49926758,-2.0,-0.44854736
0.045898438,-1.3792114,-0.40509033
0.056396484,-0.25323486,-0.09283447
0.3178711,0.21722412,-0.24298096
0.16088867,-0.913147,-0.22808838
0.29663086,-2.0,-0.10284424
0.022460938,-1.5918579,-0.10333252
-0.4020996,-0.042297363,0.009460449
0.13110352,0.20477295,-0.022766113
0.625,-1.4094849,-0.2107544
-0.31860352,-2.0,-0.17681885
-0.08300781,-1.4170532,-0.28326416
0.13842773,-0.039367676,-0.28326416
0.25195312,0.16253662,-0.16998291
-0.17163086,-1.567688,-0.6265259
0.19458008,-2.0,0.0060424805
-0.11010742,-1.2053833,-0.13189697
-0.37890625,0.09295654,0.1930542
0.1015625,0.08441162,-0.038635254
0.8569336,-1.8347778,0.34100342
-0.18286133,-2.0,-0.08380127
0.0063476562,-1.1912231,-0.20245361
0.033447266,-0.051330566,-0.19683838
0.16479492,0.17010498,-0.07623291
-0.16040039,-1.7957153,-0.8596802
-0.118896484,-1.942688,-0.09429932
0.017578125,-1.2959595,-0.12774658
-0.091308594,0.028747559,0.06829834
-0.095458984,0.049987793,-0.023986816
0.99194336,-1.7756958,0.24359131
-0.40429688,-2.0,-0.046691895
-0.083984375,-1.116272,-0.19024658
0.10595703,0.030944824,-0.2041626
0.18945312,0.13348389,-0.085998535
0.0847168,-2.0,-0.78912354
0.13989258,-1.9248657,-0.053771973
-0.09106445,-1.0825806,-0.06549072
-0.11621094,0.1762085,-0.0569458
-0.06689453,0.039978027,-0.010559082
-0.47705078,-2.0,0.37298584
-0.3305664,-2.0,-0.09185791
-0.13745117,-0.8479614,-0.33111572
0.2553711,0.21453857,-0.18707275
0.15625,0.013122559,-0.0037231445
0.66308594,-2.0,-0.13360596
0.052978516,-1.7354126,0.039001465
-0.01586914,-0.89556885,-0.11505127
-0.17114258,0.2140503,0.03363037
-0.20117188,0.054138184,-0.013000488
-0.6999512,-2.0,-0.24176025
-0.29614258,-1.8806763,-0.14385986
0.053955078,-0.579895,-0.1663208
