accelX,accelY,accelZ
-0.0925293,0.19036865,-0.34503174
0.22509766,-0.9221802,-0.4290161
0.056884766,-2.0,0.5914917
0.32128906,-1.3999634,-0.15167236
0.04711914,-0.04522705,-0.13043213
-0.009521484,0.07928467,0.07244873
0.12646484,-1.9397583,-0.39605713
0.04321289,-2.0,0.5031128
0.043701172,-1.0027466,0.11395264
-0.33666992,0.39227295,-0.190979
-0.08203125,-0.5623169,-0.36895752
-0.083984375,-2.0,0.17401123
-0.1328125,-2.0,0.20599365
-0.25708008,-0.64312744,0.25579834
0.19580078,0.4484253,0.043151855
0.038330078,-1.1431274,-0.06524658
0.20507812,-2.0,0.7477417
0.20336914,-1.3772583,0.01727295
-0.1772461,0.24017334,0.0914917
-0.16357422,-0.08746338,0.086364746
0.21850586,-1.859436,-0.06451416
-0.16357422,-2.0,0.6547241
0.15795898,-0.94976807,0.27020264
-0.1262207,0.26019287,-0.12872314
0.1328125,0.11029053,0.19476318
0.60668945,-2.0,0.50335693
0.048828125,-1.8494263,0.37445068
-0.084472656,-1.0335083,0.19671631
-0.35375977,0.40716553,-0.24761963
0.029296875,-0.06719971,0.22113037
0.22729492,-2.0,0.070251465
0.060791016,-2.0,0.6173706
-0.09716797,-1.069397,0.124938965
-0.122558594,0.11590576,-0.12872314
0.15234375,0.082214355,0.12884521
1.142334,-1.895813,-0.012268066
0.20532227,-1.7261353,0.22283936
-0.036621094,-0.94000244,0.08343506
-0.45776367,0.3571167,-0.034484863
0.010498047,-0.053771973,0.017028809
0.53271484,-2.0,-0.51104736
0.30078125,-1.8433228,1.0441284
0.10107422,-1.3860474,0.058288574
-0.51904297,-0.1350708,0.25775146
0.20263672,0.28607178,0.030944824
0.9526367,-2.0,0.010437012
0.018066406,-1.9612427,0.37298584
0.037109375,-1.1448364,0.19671631
-0.36865234,0.39959717,0.010681152
-0.041503906,-0.054016113,0.078552246
0.31689453,-1.5505981,0.070739746
-0.15283203,-2.0,1.0150757
0.1899414,-1.1101685,0.1161499
-0.008300781,0.13348389,-0.30889893
0.15820312,-0.0178833,-0.1795044
0.80688477,-2.0,0.12445068
0.32641602,-1.9060669,0.4237671
0.083984375,-0.69415283,0.2999878
-0.39648438,0.4796753,-0.20587158
0.21191406,-0.90875244,-0.054748535
-0.19458008,-2.0,0.32000732
0.22314453,-1.5269165,0.1461792
-0.17382812,-0.36065674,0.17791748
0.22241211,0.27923584,-0.047180176
0.2397461,-1.2620239,0.09222412
0.24853516,-2.0,0.9039917
0.08105469,-1.3098755,-0.02545166
-0.1940918,0.3908081,-0.042053223
-0.07006836,-0.21514893,-0.010314941
0.0014648438,-2.0,0.12347412
-0.0107421875,-1.9692993,0.4467163
-0.140625,-0.7102661,0.46209717
0.26245117,0.36956787,-0.33502197
0.11035156,-0.10601807,-0.35821533
1.1923828,-2.0,0.024841309
0.34887695,-1.6516724,0.17913818
-0.11791992,-0.41607666,0.3414917
-0.26220703,0.35906982,-0.27496338
0.27514648,-0.9636841,-0.059143066
-0.08129883,-2.0,0.5734253
0.1340332,-1.5164185,0.06829834
-0.12182617,-0.22418213,0.04949951
0.37573242,0.2555542,-0.043029785
0.45410156,-1.6594849,-0.15802002
0.31884766,-1.9673462,0.5775757
0.037841797,-1.1370239,0.10247803
-0.2199707,0.55999756,-0.06329346
-0.07324219,-0.34674072,0.27313232
0.13085938,-2.0,-0.04034424
0.12060547,-2.0,0.23651123
-0.07495117,-0.91973877,0.42645264
0.19799805,0.43963623,-0.18829346
0.33422852,-0.52911377,-0.48468018
0.5986328,-2.0,0.48260498
0.31274414,-1.296936,-0.051330566
-0.18383789,-0.014221191,0.2855835
-0.25805664,0.05267334,-0.25958252
0.20385742,-1.4837036,-0.284729
-0.029785156,-2.0,0.5199585
0.28735352,-1.2561646,-0.14019775
-0.1184082,0.10076904,-0.2288208
0.1977539,0.11419678,-0.026672363
0.60131836,-2.0,-0.041809082
0.18041992,-1.97052,0.29608154
-0.036132812,-0.9673462,0.23016357
-0.4987793,0.68499756,-0.04864502
-0.14990234,-0.26031494,0.20770264
0.31347656,-2.0,-0.0056762695
-0.21289062,-2.0,0.30438232
0.11791992,-0.8838501,0.45599365
0.1459961,0.38983154,-0.26153564
0.15551758,-0.26519775,-0.3340454
0.7927246,-2.0,0.26605225
0.34838867,-1.7776489,0.3546753
-0.06542969,-0.5796509,0.22113037
-0.33862305,0.4701538,-0.28912354
0.04736328,-0.909729,-0.20025635
-0.12402344,-2.0,0.35125732
-0.028076172,-1.5159302,0.06317139
-0.2163086,-0.25689697,0.19915771
0.21875,0.340271,-0.074035645
0.23535156,-1.3425903,-0.04034424
0.46679688,-2.0,0.83636475
0.1484375,-1.2739868,0.17791748
-0.23095703,0.11199951,0.089782715
0.0073242188,-0.11114502,-0.018859863
0.1381836,-1.8635864,-0.44952393
-0.28857422,-2.0,0.3456421
0.21875,-1.3081665,0.13934326
-0.123291016,0.2062378,-0.29327393
0.22875977,0.020690918,0.112976074
0.3630371,-1.842102,-0.101135254
0.25219727,-1.9168091,0.42913818
-0.060058594,-0.9849243,0.1618042
-0.50219727,0.71868896,-0.28546143
-0.08959961,-0.7402954,-0.38946533
-0.06274414,-2.0,0.1305542
-0.049072266,-1.7820435,0.14935303
-0.16015625,-0.6470337,0.36444092
0.2536621,0.3583374,-0.2649536
0.34301758,-0.9319458,-0.3723755
0.4650879,-2.0,0.84661865
0.25048828,-1.3748169,0.22528076
-0.21240234,-0.20147705,0.18743896
-0.18579102,-0.031311035,-0.2263794
0.17895508,-1.6087036,-0.25689697
0.0024414062,-2.0,0.38519287
0.052490234,-1.2329712,0.13226318
0.02368164,0.19769287,-0.43023682
0.0546875,0.08343506,0.11151123
0.564209,-1.9192505,-0.015686035
-0.022949219,-2.0,0.38128662
0.047851562,-1.0696411,0.0289917
-0.47827148,0.48138428,-0.085998535
-0.23388672,-0.40704346,-0.29840088
0.07104492,-2.0,-0.036193848
-0.19189453,-1.8884888,0.09979248
-0.13061523,-0.831604,0.44573975
0.20043945,0.4364624,-0.2053833
0.33789062,-0.503479,-0.5720825
0.45361328,-2.0,0.6088257
0.58984375,-1.5913696,0.262146
-0.09033203,-0.41046143,0.32318115
-0.23168945,0.27825928,-0.18780518
0.37939453,-1.0584106,-0.22369385
-0.05053711,-2.0,0.49871826
0.12036133,-1.411438,0.10858154
-0.19677734,-0.17730713,0.028503418
0.19360352,0.215271,0.02532959
0.96435547,-1.7420044,0.10418701
0.29101562,-1.8672485,0.45477295
-0.103271484,-1.0632935,0.33514404
-0.32177734,0.52264404,-0.01763916
-0.09375,-0.2942505,0.2711792
0.109375,-2.0,0.06707764
-0.2763672,-2.0,0.39178467
-0.0063476562,-1.0549927,0.35272217
0.13452148,0.27093506,-0.30010986
0.099365234,-0.14068604,-0.17095947
0.9177246,-2.0,0.29266357
0.1965332,-1.7678833,0.37249756
-0.14355469,-0.48858643,0.2321167
-0.30029297,0.2994995,-0.058410645
0.11254883,-0.7737427,-0.46539307
-0.21240234,-2.0,0.2897339
0.33520508,-1.6912231,0.2531128
-0.08618164,-0.5523071,0.24163818
0.21166992,0.2929077,-0.14239502
0.13061523,-0.23272705,-0.39434814
0.92871094,-2.0,0.34490967
0.1694336,-1.8538208,0.44281006
-0.08666992,-0.6099243,0.24481201
-0.39575195,0.4467163,-0.12677002
0.1694336,-0.99542236,-0.33746338
-0.32299805,-2.0,0.1239624
0.13549805,-1.859436,0.18499756
0.05078125,-0.7971802,0.35198975
0.12792969,0.27386475,-0.18292236
0.24194336,-0.29718018,-0.5418091
0.73583984,-2.0,0.3151245
0.18066406,-1.7947388,0.31048584
-0.08203125,-0.36016846,0.29241943
-0.40576172,0.38641357,-0.22442627
0.12963867,-1.0095825,-0.50567627
-0.41308594,-2.0,0.45477295
0.24121094,-1.8626099,0.25506592
-0.1928711,-0.7102661,0.24432373
0.2163086,0.2765503,-0.06524658
0.25683594,-0.8755493,-0.047912598
0.18383789,-2.0,0.55511475
0.3022461,-1.6477661,0.62249756
0.011962891,-0.2793579,0.28167725
-0.29248047,0.26287842,-0.11016846
0.3413086,-1.4568481,-0.4036255
-0.27172852,-2.0,0.6195679
0.30126953,-1.5842896,0.32659912
-0.06542969,-0.5701294,0.2518921
0.119384766,0.36810303,-0.07989502
0.3203125,-1.1106567,-0.16192627
0.30688477,-2.0,0.56903076
0.33691406,-1.7080688,0.607605
-0.11328125,-0.5112915,0.32855225
-0.38012695,0.41986084,-0.11187744
-0.4020996,-0.56573486,-0.7593384
0.25219727,-1.9436646,0.37786865
-0.057861328,-1.873352,0.15814209
0.008544922,-0.8713989,0.2711792
0.08227539,0.26361084,-0.10797119
0.23925781,-0.32037354,-0.27301025
0.47265625,-1.991272,0.46673584
0.26708984,-1.8547974,0.47113037
0.0017089844,-0.81866455,0.152771
-0.234375,0.38763428,-0.03692627
-0.15844727,-0.45733643,-0.4163208
0.07324219,-1.8587036,0.37322998
0.114990234,-1.953186,0.27972412
0.017578125,-0.98516846,0.340271
0.13598633,0.15350342,-0.1416626
0.076660156,-0.09674072,-0.21002197
0.5930176,-2.0,0.33270264
0.14916992,-1.7849731,0.45184326
-0.052246094,-0.87579346,0.18963623
-0.18969727,0.3505249,-0.070617676
0.1899414,-0.73687744,-0.34991455
-0.5019531,-1.9058228,0.22015381
0.15600586,-1.9490356,0.26678467
0.048339844,-1.0010376,0.2489624
0.038085938,-0.034240723,-0.08746338
0.14086914,-0.105041504,-0.331604
0.8586426,-2.0,0.3078003
0.15283203,-1.819397,0.36566162
-0.08886719,-0.8591919,0.25408936
-0.13769531,0.43084717,-0.038879395
-0.20751953,-0.20709229,-0.15997314
0.041015625,-2.0,0.31585693
0.007080078,-2.0,0.25360107
-0.0014648438,-1.0852661,0.34417725
0.12695312,0.0993042,-0.09259033
0.05053711,-0.038391113,-0.14141846
0.89697266,-1.9793091,-0.06304932
0.06933594,-1.8389282,0.4249878
-0.012451172,-1.0745239,0.15765381
-0.16333008,0.293396,-0.004211426
-0.01977539,-0.011779785,0.16253662
0.04736328,-2.0,0.13543701
-0.14624023,-1.8701782,0.34197998
-0.0029296875,-1.3040161,0.3180542
0.041503906,-0.039611816,-0.065979004
0.21875,0.13665771,-0.10040283
0.86816406,-1.894104,0.17889404
0.2607422,-1.7798462,0.33099365
0.013183594,-1.1873169,0.16473389
-0.15161133,0.16351318,0.16864014
-0.064697266,0.07733154,0.1786499
0.08105469,-2.0,-0.16656494
-0.19213867,-1.998352,0.37054443
0.15283203,-1.2107544,0.14007568
-0.0024414062,-0.14093018,-0.030334473
0.15576172,0.06097412,-0.1506958
0.88720703,-2.0,0.06976318
0.10107422,-1.7546997,0.36102295
-0.05493164,-0.7124634,0.24969482
-0.2763672,0.4179077,-0.022277832
0.068359375,-0.6008911,-0.38897705
-0.39794922,-2.0,0.20477295
0.17700195,-1.8504028,0.28656006
-0.2861328,-0.68463135,0.37347412
0.19165039,0.2633667,-0.13092041
0.33544922,-0.42218018,-0.4824829
0.36987305,-2.0,0.7706909
0.27856445,-1.6087036,0.34173584
-0.052490234,-0.36798096,0.20477295
-0.35083008,0.3595581,-0.06719971
0.047851562,-1.1362915,-0.38458252
-0.34545898,-2.0,0.5726929
0.2241211,-1.7781372,0.23187256
-0.24707031,-0.75616455,0.36395264
0.04248047,0.21551514,-0.1687622
0.23608398,-0.8167114,-0.03253174
0.16381836,-1.8972778,0.32562256
0.19677734,-1.7778931,0.32562256
-0.030517578,-0.58258057,0.28118896
-0.25439453,0.2645874,-0.050109863
0.09814453,-0.73883057,-0.27764893
-0.37670898,-2.0,0.23309326
0.19897461,-1.8640747,0.19671631
-0.09838867,-0.85943604,0.19940186
0.110839844,0.25115967,-0.058654785
0.24780273,-0.7817993,-0.12799072
0.21728516,-2.0,0.47528076
0.25683594,-1.6536255,0.43475342
0.051513672,-0.19586182,0.34588623
-0.22290039,0.19476318,-0.13140869
0.33789062,-1.0374146,-0.061340332
-0.20458984,-2.0,0.52386475
0.0859375,-1.614563,0.3287964
-0.123046875,-0.52960205,0.16741943
0.16601562,0.20550537,-0.077941895
0.2763672,-0.9529419,-0.32696533
0.16381836,-2.0,0.4821167
0.23486328,-1.538147,0.105895996
-0.043701172,0.00018310547,0.23016357
-0.21264648,0.14935303,-0.105285645
-0.048095703,-2.0,-0.18121338
-0.0009765625,-1.9175415,0.28289795
0.03930664,-1.2669067,0.17669678
-0.0078125,-0.3196411,-0.0022583008
0.31713867,0.3085327,0.031188965
0.68310547,-1.6292114,0.21697998
0.22924805,-1.8755493,0.3529663
0.18408203,-1.2373657,0.12298584
-0.15405273,0.048034668,0.21575928
-0.09423828,0.12762451,0.18621826
0.15527344,-1.9973755,0.10662842
-0.017822266,-1.9351196,0.5800171
0.08276367,-1.342102,0.31121826
0.064941406,-0.1873169,-0.0068969727
0.14648438,0.17279053,0.039489746
0.8017578,-1.4966431,-0.03741455
0.18481445,-1.7075806,0.43572998
0.19726562,-1.440979,0.3390503
0.021728516,-0.13824463,0.31341553
-0.27929688,0.2567749,0.015075684
0.6040039,-1.7283325,-0.2703247
-0.28881836,-1.9431763,0.47283936
0.16015625,-1.6924438,0.43988037
-0.032714844,-0.38311768,0.1395874
0.024169922,0.17254639,-0.09991455
0.24902344,-0.9348755,-0.12408447
0.27490234,-2.0,0.604187
0.37109375,-1.8689575,0.5372925
0.028808594,-0.3484497,0.3619995
-0.30029297,0.17132568,-0.16265869
-0.030273438,-0.59210205,-0.53790283
-0.27856445,-1.9285278,0.33343506
0.15600586,-1.880188,0.27313232
-0.14941406,-0.9500122,0.40545654
0.030761719,0.12713623,-0.09307861
0.17114258,-0.19537354,-0.3760376
0.5358887,-1.9192505,0.494812
0.37890625,-1.9407349,0.42645264
-0.0078125,-0.6201782,0.28045654
-0.3623047,0.277771,-0.12237549
-0.13232422,-0.028869629,0.040222168
0.07446289,-1.9805298,-0.004699707
-0.033447266,-2.0,0.22503662
0.0031738281,-1.2151489,0.30633545
-0.028564453,0.16400146,-0.057922363
0.2277832,-0.13214111,-0.3399048
0.9724121,-2.0,0.10491943
0.19433594,-1.8694458,0.38128662
0.012207031,-0.7893677,0.15716553
-0.30615234,0.26800537,0.03656006
-0.051513672,0.035095215,0.31976318
0.052978516,-1.9609985,0.14227295
-0.16723633,-2.0,0.7819214
0.22021484,-1.2022095,0.22796631
0.015136719,0.23382568,-0.31207275
0.091552734,0.042663574,0.08441162
1.4726562,-2.0,0.121520996
