accelX,accelY,accelZ
0.24658203,-1.7979126,0.27264404
0.26757812,-1.6279907,0.6930542
-0.3852539,-0.7542114,-0.16949463
0.5234375,0.35198975,-0.17608643
-0.029541016,0.006286621,-0.175354
0.5805664,-2.0,-0.38433838
-0.26342773,-1.8655396,0.20159912
0.038085938,-0.60406494,0.042175293
0.107666016,0.64959717,-0.28399658
0.080078125,-0.19366455,-0.17340088
0.04663086,-2.0,1.635437
-0.57788086,-2.0,0.12542725
-0.32055664,-0.38067627,-0.045959473
0.65893555,-0.026672363,0.2033081
-0.45629883,0.027770996,-0.24957275
0.2409668,-2.0,-0.019592285
0.028320312,-1.7788696,-0.14361572
-0.32080078,0.5631714,-0.39434814
0.04638672,-0.15899658,0.109313965
0.40600586,-0.62628174,-0.69854736
-1.9179688,-1.437561,-0.9414673
0.69189453,-1.0725708,0.04852295
0.25195312,0.67230225,-0.69732666
0.0053710938,-0.31280518,-0.5420532
0.20239258,-2.0,-0.0115356445
-0.5620117,-1.7949829,0.81292725
0.014160156,-0.5718384,0.47088623
0.5415039,-0.024963379,-0.113586426
-0.02734375,-0.33770752,0.14715576
0.09277344,-2.0,0.49749756
-0.72509766,-2.0,-0.5315552
0.096191406,0.04534912,0.20965576
0.43798828,-0.28424072,0.21722412
-0.2890625,-0.036193848,-0.36505127
0.033203125,-2.0,0.03387451
0.076660156,-1.8655396,-0.04107666
-0.2409668,0.24285889,-0.63946533
0.42333984,0.0079956055,-0.026672363
0.09741211,-0.4776001,-0.32525635
-0.6152344,-2.0,0.3053589
0.16088867,-1.3814087,-0.7695923
0.3059082,0.14593506,-0.52227783
-0.08886719,0.14007568,-0.013244629
-0.06616211,-0.86724854,-0.31671143
-0.7993164,-1.6682739,-0.32696533
0.32373047,-0.82476807,0.078063965
-0.20629883,0.57855225,-0.23199463
0.23950195,-0.17999268,-0.061340332
-0.98217773,-2.0,0.16107178
-0.3581543,-2.0,0.16790771
-0.29101562,-0.2913208,-0.19830322
0.24682617,0.20672607,0.44573975
0.29467773,-0.23297119,-0.89923096
0.26049805,-2.0,-0.28814697
-0.15234375,-1.4998169,-0.14141846
-0.25756836,0.52215576,-0.7971802
0.22021484,-0.07550049,-0.0095825195
0.7585449,-2.0,-1.367981
-1.4382324,-1.453186,-0.014465332
0.11254883,-0.6790161,0.4232788
0.18261719,0.40203857,-0.21832275
-0.41870117,-0.32989502,-0.46539307
0.8469238,-2.0,-0.31158447
-1.0983887,-1.5425415,0.35809326
0.3623047,0.038757324,0.10101318
0.025146484,-0.1572876,-0.047668457
0.01953125,-0.3015747,-0.2420044
0.11669922,-2.0,0.22576904
0.13574219,-1.8792114,-0.89801025
-0.11816406,0.45794678,-0.47686768
0.17822266,-0.11090088,-0.08868408
0.18383789,-0.26885986,-1.310852
-0.2175293,-1.96344,0.22454834
0.5986328,-1.3152466,-0.12408447
-0.73583984,1.1412964,-0.581604
0.5686035,-0.30181885,0.06561279
-0.9182129,-2.0,-1.388977
-1.730957,-1.3892212,-0.032287598
0.18798828,-0.4085083,0.2189331
0.44384766,-0.0037231445,0.309021
-0.43554688,-0.033996582,-0.35162354
0.4260254,-2.0,1.2428589
-0.74365234,-1.5806274,0.055603027
-0.10473633,0.2765503,-0.45318604
0.43920898,-0.18927002,-0.0071411133
-0.38916016,-0.40264893,-0.26617432
0.05908203,-2.0,0.56292725
-0.046142578,-1.6321411,-0.8909302
0.2668457,0.35516357,-1.0664673
0.08691406,-0.07110596,-0.045959473
-0.6870117,-0.7925415,-0.061584473
-1.0771484,-1.5759888,-0.90631104
0.86816406,-1.0601196,0.5101929
-0.38842773,0.41766357,-0.28033447
0.075683594,-0.30963135,0.054382324
0.16894531,-2.0,0.68084717
-0.13720703,-2.0,-0.4800415
-0.3515625,0.21234131,-0.04888916
0.6791992,-0.1272583,0.31976318
-0.12670898,-0.11895752,-0.5689087
0.1899414,-2.0,-0.19976807
0.03149414,-1.5457153,-0.047668457
-0.36132812,0.7753296,-0.80181885
0.56762695,-0.2744751,0.047790527
0.12402344,-2.0,-1.2141724
-1.6760254,-1.7312622,0.88446045
0.020019531,-0.5281372,0.2850952
0.4091797,0.04949951,0.07928467
-0.58032227,0.034362793,-0.5120239
0.1928711,-2.0,-0.93170166
-0.9147949,-1.635315,0.39813232
0.19750977,0.16473389,-0.002746582
0.5095215,-0.473938,0.0836792
0.2956543,-0.5906372,-0.74102783
-0.19238281,-1.7185669,0.21795654
0.25756836,-2.0,-0.7407837
0.010986328,0.34246826,-0.58673096
0.071777344,-0.06109619,-0.16925049
-0.17919922,-1.1270142,-0.17974854
-1.2231445,-1.8411255,-0.66241455
0.57470703,-0.94488525,0.59661865
-0.2902832,0.70355225,-0.42974854
0.19238281,-0.3255005,0.1918335
-0.1730957,-2.0,1.2057495
-0.9621582,-1.946106,0.37542725
-0.21240234,0.08026123,0.5211792
0.6328125,-0.0032348633,0.42132568
-0.6550293,-0.21807861,-0.552063
0.009277344,-2.0,0.1942749
-0.5097656,-1.6331177,-0.01373291
-0.24365234,0.7741089,-0.50982666
0.21948242,-0.20367432,-0.14849854
-0.061279297,-0.54351807,-0.15045166
-0.85595703,-0.7168579,-0.50616455
0.65722656,-1.666565,-0.37213135
-0.3623047,0.7055054,-0.73321533
0.32885742,-0.14898682,-0.0791626
0.25512695,-0.2041626,0.80096436
-1.0397949,-1.8535767,-0.15435791
0.69750977,-1.4546509,0.2741089
-0.52001953,0.69281006,-0.38116455
0.07519531,-0.2456665,-0.13018799
-0.20800781,-2.0,0.33880615
0.2861328,-2.0,-0.14556885
0.3581543,0.23162842,-0.3513794
-0.22607422,-0.1609497,-0.5198364
0.2626953,-0.15997314,-1.0142212
0.18798828,-2.0,-0.006164551
0.047607422,-1.5391235,-0.097473145
-0.03881836,0.6119995,-0.5706177
0.28857422,-0.2588501,0.12738037
-0.33691406,-2.0,-0.46588135
-1.5788574,-1.506897,-0.18658447
0.23706055,-0.42266846,0.47650146
0.2175293,0.184021,0.29315186
-0.42358398,-0.144104,-0.4109497
0.37475586,-2.0,0.55633545
-1.1535645,-1.0691528,0.38739014
0.22998047,0.06512451,-0.0803833
0.0793457,-0.034484863,-0.023254395
0.100097656,-1.4944458,-1.8093872
-1.5625,-1.6682739,-0.07525635
-0.051757812,-1.041565,-0.2119751
0.37646484,0.31781006,-0.7022095
-0.73999023,-0.011291504,-0.54644775
0.68310547,-2.0,-0.37457275
-1.5678711,-1.3335571,-0.16729736
0.2043457,-0.7852173,0.10076904
-0.17211914,0.4772339,-0.101379395
0.018066406,-0.26934814,-0.20465088
0.06738281,-2.0,1.383728
-0.060546875,-1.6150513,0.19329834
-0.46069336,-0.061828613,-0.36602783
0.6413574,-0.07281494,0.43304443
-0.44628906,-0.19366455,-0.62872314
0.016845703,-2.0,1.0848999
-0.26904297,-1.4595337,0.16766357
-0.05810547,0.57611084,-0.694397
0.4453125,-0.36846924,0.11859131
-0.5131836,-1.1270142,-2.0
-1.8432617,-1.6558228,0.12738037
0.53125,-0.30108643,0.017028809
0.09350586,0.089782715,-0.4036255
-0.6335449,0.05267334,-0.65460205
1.0107422,-2.0,1.8742065
-1.1706543,-1.3313599,0.12567139
0.5842285,0.005554199,0.050964355
0.021484375,-0.18536377,0.12884521
-0.0053710938,-0.33966064,-0.78326416
-0.74731445,-2.0,-0.4475708
0.39916992,-1.5083618,-0.70147705
0.35107422,0.17230225,-0.7251587
-0.23291016,0.0692749,-0.20367432
0.1340332,-1.0134888,0.31170654
-1.4863281,-1.6516724,0.038024902
0.40454102,-1.0435181,0.06707764
-0.14038086,0.64959717,-0.38531494
0.0546875,-0.28546143,0.32269287
-0.6394043,-2.0,0.60198975
-0.54467773,-2.0,-0.20123291
-0.24487305,-0.03375244,-0.1885376
0.39086914,0.019958496,0.51483154
-0.34985352,-0.37042236,-0.5586548
-1.065918,-2.0,0.7133179
0.51660156,-1.317688,-0.23028564
-0.10595703,0.23797607,-0.22369385
0.45166016,-0.21905518,0.21673584
-0.4567871,-0.76690674,-2.0
-1.5861816,-1.3599243,0.11395264
0.49609375,-0.6091919,-0.1326294
-0.17871094,0.32122803,-0.66192627
-0.5588379,0.0289917,-0.6421509
0.9255371,-2.0,0.20062256
-1.184082,-1.3618774,0.1239624
0.31347656,-0.59820557,0.07562256
-0.30371094,0.5175171,-0.14215088
0.015136719,-0.3357544,-0.5730591
-0.31323242,-2.0,0.70526123
0.6652832,-1.984436,-0.15948486
-0.5793457,0.355896,-0.84576416
0.5563965,0.094177246,0.14129639
0.32128906,-0.20391846,-1.1282349
-0.048583984,-2.0,0.30804443
0.51831055,-1.2854614,-0.057922363
-0.5480957,0.96624756,-0.66534424
0.3569336,-0.23223877,0.24847412
-0.13623047,-2.0,-0.046203613
-1.576416,-1.6734009,0.42425537
0.037109375,-0.4570923,0.016296387
0.36083984,0.14031982,0.2958374
-0.78100586,-0.051330566,-0.79034424
1.0825195,-2.0,0.23138428
-0.8557129,-1.300354,-0.3057251
-0.5378418,0.5194702,-0.3616333
0.75683594,-0.46759033,0.49505615
-0.48950195,-2.0,-1.5667114
-2.0,-1.321106,-0.14752197
-0.052001953,-0.6187134,0.012390137
0.44970703,0.26507568,-0.22174072
-0.33520508,-0.073791504,0.027770996
1.1762695,-2.0,1.465271
-1.1252441,-1.4155884,0.15667725
0.12207031,0.18304443,0.066101074
0.36865234,0.097351074,-0.085998535
-0.40722656,-0.9729614,-1.5584106
-1.6450195,-1.4810181,-0.98443604
0.12768555,-1.0210571,-0.24664307
0.3059082,0.31878662,-0.5108032
-0.0126953125,0.042907715,-0.019836426
-0.47314453,-2.0,-1.2715454
-1.800293,-1.7471313,-0.39630127
0.8432617,-0.84747314,0.70599365
-0.26708984,0.5951538,-0.17803955
-0.033447266,-0.20220947,-0.3411255
0.17749023,-2.0,0.53533936
-0.30493164,-1.664856,-0.116760254
-0.099121094,0.09466553,-0.3406372
0.4645996,0.03265381,0.38616943
-0.16137695,0.16473389,-0.43096924
0.7746582,-2.0,-0.085998535
-0.2097168,-1.5154419,0.17572021
0.1159668,0.7453003,-0.6213989
0.31445312,-0.039611816,-0.053527832
0.92089844,-1.6629028,-0.9534302
-1.3100586,-1.7871704,0.034118652
-0.2915039,-0.75982666,0.14324951
0.2919922,0.15179443,-0.13922119
-1.0324707,0.20721436,-0.1819458
0.9370117,-2.0,-1.3630981
-1.5837402,-1.467102,-0.3328247
0.75,-0.1404419,0.13128662
0.049560547,-0.04473877,0.09442139
0.25,-0.43292236,-0.9036255
-0.96972656,-2.0,-0.49249268
0.5456543,-1.8701782,-0.32598877
-0.36499023,0.45184326,-0.80133057
0.3400879,0.078063965,0.20916748
-0.7722168,-0.87164307,-0.9151001
-0.99072266,-1.7439575,-0.82037354
0.9387207,-1.2778931,0.23162842
-0.74438477,0.8517456,-0.16998291
0.14501953,-0.32891846,-0.054016113
-0.025390625,-2.0,1.6652222
-0.37573242,-1.5828247,0.23480225
-0.4104004,0.11468506,-0.56085205
0.78125,0.0119018555,0.4142456
-0.5270996,-0.28424072,-0.9229126
0.8671875,-2.0,0.25653076
0.05493164,-1.2756958,0.20819092
-0.33398438,0.7765503,-0.79107666
0.5390625,-0.13482666,-0.050842285
0.31445312,-2.0,-1.2107544
-1.2163086,-1.3164673,0.035827637
0.30810547,-0.58306885,-0.23223877
-0.21484375,0.019470215,-0.21832275
-0.6633301,0.3583374,-0.37213135
0.85717773,-2.0,1.703064
-0.011474609,-1.5535278,-0.0025024414
-0.123046875,0.31829834,-0.29742432
0.6328125,-0.2617798,0.15008545
-0.07324219,-0.36773682,-1.0679321
-1.5244141,-2.0,0.05657959
0.7077637,-1.142395,-0.3328247
0.1586914,0.29486084,-0.65704346
-0.3088379,0.066589355,-0.46295166
-0.18164062,-0.15264893,0.39227295
-0.67407227,-2.0,-0.5899048
0.2758789,-1.0906372,0.26287842
-0.48242188,0.68255615,-0.12750244
0.5349121,-0.35772705,-0.1404419
0.14282227,-2.0,0.12445068
-1.8835449,-1.831604,1.6664429
-0.10595703,-0.2456665,-0.46929932
0.38427734,-0.2539673,-0.12530518
-0.68359375,0.11224365,-1.1240845
0.33935547,-1.9299927,0.7731323
-0.17773438,-1.5007935,-0.06890869
-0.34228516,1.086853,-0.52667236
0.8088379,-0.42266846,-0.0012817383
-0.8586426,-2.0,-2.0
-2.0,-1.413147,-0.24053955
0.7680664,-1.194397,-0.34039307
-0.13500977,0.10662842,0.15106201
-0.34033203,0.23138428,-0.395813
-0.810791,-2.0,0.14227295
-1.3342285,-1.6375122,-0.2210083
0.5378418,-0.7112427,0.16766357
0.06713867,0.26727295,-0.023498535
0.3017578,-0.30792236,-0.54937744
-0.33447266,-2.0,0.7872925
-0.04321289,-1.4802856,-0.17144775
-0.54541016,0.21600342,-0.8164673
0.6765137,0.16326904,0.17327881
0.068847656,-0.55303955,-1.0237427
0.15332031,-2.0,0.21087646
-0.16870117,-1.3364868,-0.36431885
-0.43725586,0.899353,-0.36138916
0.58325195,-0.05987549,-0.0803833
0.009277344,-2.0,0.36517334
-0.9953613,-1.5830688,0.32147217
-0.2680664,-0.4492798,-0.24005127
0.42358398,0.0211792,-0.10406494
-0.6088867,0.06512451,-0.32452393
1.999939,-2.0,0.73065186
-1.0644531,-1.331604,0.21600342
0.43066406,-0.23760986,0.3756714
0.1887207,-0.046447754,0.014587402
-0.36254883,-0.4746704,-0.42730713
0.8041992,-1.9302368,-1.1130981
-0.3395996,-1.5137329,0.66815186
-0.029296875,0.20257568,-0.8809204
0.53930664,0.08148193,0.6119995
-0.5131836,-0.5046997,-1.2637329
-0.34204102,-1.3772583,0.18939209
0.6315918,-1.6548462,-0.21807861
-0.47973633,1.0787964,-0.9846802
0.29223633,-0.27398682,0.260437
1.052002,-2.0,-1.0354614
-1.8122559,-1.4553833,0.04949951
-0.68969727,-0.741272,0.034851074
0.8327637,0.10345459,0.24188232
-1.329834,0.016296387,-0.10723877
1.999939,-2.0,-0.93463135
-1.987793,-1.373352,-0.066467285
1.0114746,-0.10211182,-0.65997314
0.13110352,0.006286621,0.03387451
-0.26879883,-0.4751587,-0.55474854
0.36572266,-2.0,-0.24176025
0.060791016,-1.350647,-0.65289307
0.011962891,-0.004211426,-0.65875244
-0.03881836,0.20062256,0.0914917
-0.5852051,-0.6382446,0.04852295
-0.45336914,-1.6526489,-0.71881104
0.5476074,-1.1521606,0.23406982
-0.3857422,0.4611206,-0.2925415
0.20019531,-0.19927979,-0.27056885
0.087646484,-2.0,0.9369507
-0.4140625,-1.8362427,-0.35943604
-0.16259766,-0.24420166,-0.40216064
0.34936523,0.113708496,0.31341553
