accelX,accelY,accelZ
-1.2016602,-1.9578247,0.5844116
0.030761719,-1.2769165,-0.3345337
-0.115722656,-0.65753174,0.21429443
-0.34643555,0.23919678,-0.4570923
0.3100586,0.14544678,-0.5252075
-0.37646484,-2.0,1.999939
-0.46313477,-1.331604,-0.84259033
0.33666992,-1.0718384,-0.12213135
0.24389648,-0.38165283,-0.074279785
0.31591797,0.48944092,-0.38775635
0.015380859,-0.41558838,-0.45733643
0.0546875,-1.5491333,0.78289795
-0.1003418,-1.1914673,-0.12164307
-0.10107422,-0.6206665,0.20062256
-1.0297852,0.56292725,-0.56817627
0.36328125,-0.18927002,-0.6646118
-1.1789551,-1.1734009,1.999939
-0.78564453,-0.9048462,-0.47613525
0.6333008,-1.0779419,-0.07354736
0.25805664,-0.34869385,-0.13238525
0.056640625,0.7628784,-0.5491333
0.22998047,-0.95562744,-0.3147583
0.51586914,-1.647522,-0.3201294
0.00390625,-1.163147,-0.054504395
-0.21044922,-0.48077393,0.18817139
-1.0656738,0.7719116,-0.64727783
0.56518555,-0.25665283,-0.30963135
-1.4743652,-2.0,-0.42242432
-0.06274414,-1.1726685,-0.6133423
0.47143555,-0.8579712,0.1293335
0.1821289,-0.20904541,-0.16217041
0.03515625,0.5956421,-0.37457275
1.8222656,-2.0,-1.6206665
0.13012695,-1.4575806,-0.4277954
-0.009765625,-0.79571533,0.028259277
-0.022216797,-0.22906494,-0.10479736
-0.91552734,1.0707397,-0.7227173
0.7524414,-1.0488892,-0.09088135
-0.8220215,-1.65802,-0.3045044
0.026855469,-1.2925415,-0.19024658
0.39941406,-0.7637329,-0.10870361
0.34960938,0.11883545,-0.3255005
-0.034423828,0.77752686,-0.284729
0.39892578,-2.0,-2.0
0.3330078,-1.649231,-0.109191895
-0.19848633,-0.80303955,0.04437256
-0.11401367,-0.20806885,0.01727295
-0.36401367,0.8031616,-0.65093994
0.58203125,-0.74102783,-0.11187744
-1.0217285,-1.6934204,-0.24810791
0.06982422,-1.1672974,-0.29034424
0.25439453,-0.50494385,0.15350342
0.18188477,0.15667725,-0.25933838
-0.00390625,0.637146,-0.4368286
0.013427734,-2.0,1.8629761
0.0769043,-1.4832153,-0.041809082
-0.24658203,-0.65802,0.15496826
-0.32788086,-0.019836426,-0.3616333
0.40893555,0.5980835,-0.5874634
1.1853027,-2.0,-1.5200806
-0.39672852,-1.5964966,-0.9212036
0.24536133,-1.0178833,-0.1921997
0.2956543,-0.520813,0.16644287
0.22851562,0.48431396,-0.24273682
-0.30810547,0.26068115,-0.6651001
-0.19042969,-1.5820923,1.999939
-0.10131836,-1.0847778,-0.22662354
-0.10839844,-0.6030884,0.15570068
-0.27319336,0.055358887,-0.36138916
0.28271484,0.27825928,-0.75787354
1.999939,-2.0,0.61053467
-0.87353516,-0.90167236,-0.93048096
0.6828613,-1.6016235,0.41766357
0.20361328,-0.2612915,-0.109436035
0.10131836,0.5192261,-0.21002197
0.0793457,-0.21954346,-0.395813
0.06323242,-1.484436,0.22332764
0.030273438,-1.3640747,0.12347412
0.041015625,-0.65997314,0.21282959
-0.31103516,0.085632324,-0.30767822
0.24316406,0.5023804,-0.6387329
1.999939,-2.0,-2.0
-0.5554199,-1.2837524,-0.7822876
0.3474121,-1.1882935,0.07952881
0.19946289,-0.5220337,0.028015137
0.10571289,0.21697998,-0.25909424
0.08227539,0.3451538,-0.3735962
-1.2785645,-2.0,1.5040894
-0.068115234,-1.3555298,-0.34283447
0.1262207,-0.84625244,0.5145874
-0.30639648,-0.13897705,-0.40997314
0.057617188,0.78826904,-0.49224854
0.90893555,-1.5481567,-0.6411743
-1.3945312,-1.5935669,-0.647522
0.5263672,-0.972229,-0.4661255
0.29223633,-0.8665161,0.11029053
0.11279297,0.3078003,-0.29400635
-0.005126953,0.6884155,-0.39556885
-1.0432129,-2.0,1.999939
0.1796875,-1.6228638,-0.34210205
-0.09399414,-0.7595825,0.18133545
-0.09838867,-0.21783447,-0.17584229
-0.74731445,0.93182373,-0.29058838
0.48754883,-0.5405884,-0.30181885
-1.4313965,-1.9641724,-0.159729
-0.11303711,-1.2727661,-0.3430786
0.3491211,-0.8101196,0.04071045
0.41479492,-0.15386963,-0.28985596
-0.07006836,0.7887573,-0.2522583
-0.4489746,-2.0,-1.08844
0.11621094,-1.5471802,-0.49371338
-0.010986328,-0.8508911,0.10101318
-0.060546875,-0.36260986,-0.14630127
-0.8547363,1.1654663,-0.37823486
0.28710938,-0.36871338,-0.53326416
-0.6755371,-1.4216919,0.43670654
-0.34570312,-1.0718384,-0.3640747
0.48217773,-0.772522,0.21331787
0.1015625,-0.09844971,-0.39361572
0.115722656,0.89105225,-0.12701416
1.1359863,-2.0,-1.0549927
0.09350586,-1.5984497,-0.54400635
-0.099853516,-0.7070923,-0.034240723
0.12060547,-0.22613525,-0.02154541
-0.40893555,0.7848511,-0.7737427
0.046142578,-2.0,-0.4763794
0.016845703,-1.4104614,-0.7217407
-0.2927246,-0.99005127,-0.1651001
0.14086914,-0.53985596,0.15228271
0.3232422,0.41448975,-0.3040161
0.018310547,0.26409912,-0.49761963
-0.11279297,-1.9016724,1.0724487
0.022949219,-1.1602173,-0.018615723
-0.13598633,-0.755188,0.2909546
-0.30688477,0.08880615,-0.41558838
0.5288086,0.47650146,-0.50445557
-0.76538086,-2.0,-1.914856
-0.17626953,-1.4492798,-1.0645142
-0.03125,-1.2068481,0.0914917
0.16381836,-0.44049072,0.050720215
0.17211914,0.5126343,-0.35528564
0.07470703,-0.02960205,-0.61260986
0.7258301,-1.8396606,-0.43902588
-0.32006836,-1.31427,-0.09283447
-0.10839844,-0.56329346,0.13763428
-0.1472168,0.18695068,-0.2979126
0.2607422,0.2333374,-0.39727783
-0.5620117,-2.0,1.999939
0.010986328,-1.3670044,-0.7678833
0.12988281,-0.88946533,-0.1428833
0.16430664,-0.3970337,0.12591553
0.14233398,0.51605225,-0.37554932
0.08154297,-0.14752197,-0.6309204
0.49365234,-1.6467896,0.34051514
-0.14794922,-1.4658813,-0.14019775
-0.05883789,-0.7090454,0.19085693
-0.2854004,0.10784912,-0.4277954
0.3720703,0.3793335,-0.5720825
0.9169922,-2.0,-2.0
-0.6179199,-1.3609009,-0.8345337
0.36083984,-1.0925903,-0.19268799
0.12646484,-0.55792236,0.18133545
0.052246094,0.48895264,-0.36871338
0.06542969,0.23187256,-0.4006958
0.4621582,-1.6885376,1.999939
-0.23535156,-1.5825806,-0.09112549
-0.12475586,-0.61260986,0.03387451
-0.16430664,-0.05670166,-0.25372314
0.055908203,0.4989624,-0.5708618
0.9362793,-2.0,-0.47027588
-0.670166,-1.4954224,-0.600647
0.15576172,-1.0396118,-0.2444458
0.2775879,-0.62628174,0.2597046
0.103027344,0.33685303,-0.3303833
-0.19189453,0.28167725,-0.6355591
0.2902832,-1.631897,1.6869507
-0.17944336,-1.3491821,-0.03643799
-0.020019531,-0.79034424,0.22503662
0.024414062,-0.18902588,-0.2630005
-0.4025879,1.0817261,-0.5454712
0.40356445,-1.3362427,-0.045959473
-0.4519043,-1.5574341,-0.60040283
0.07299805,-0.9421997,-0.17877197
0.31152344,-0.87384033,0.35394287
0.07299805,0.38079834,-0.270813
0.01928711,0.43548584,-0.51812744
-1.3393555,-1.5186157,1.8529663
-0.014404297,-1.2229614,-0.4319458
-0.025634766,-0.90997314,0.46063232
-0.28173828,-0.008117676,-0.45440674
0.3359375,0.6220093,-0.65631104
1.3054199,-2.0,-0.99542236
-0.95947266,-1.342102,-0.7354126
0.39892578,-1.2195435,-0.08843994
0.1538086,-0.6885376,0.26116943
-0.010986328,0.27386475,-0.33135986
0.13452148,0.6022339,-0.26568604
-0.87280273,-2.0,1.5497437
0.017333984,-1.5095825,-0.21002197
0.025878906,-0.895813,0.3456421
-0.2475586,-0.28692627,-0.27398682
-0.39404297,1.0756226,-0.31427002
0.5427246,-0.87506104,-0.1807251
-0.7397461,-1.5108032,-0.20440674
0.012207031,-0.99176025,-0.13677979
0.35229492,-0.9573364,0.3053589
-0.016113281,0.09637451,-0.3430786
0.029785156,1.095398,-0.40753174
0.033935547,-2.0,-2.0
-0.34277344,-1.5484009,-0.2630005
0.32592773,-0.6802368,0.34075928
-0.122802734,-0.41583252,-0.054016113
-0.9277344,1.0814819,-0.63482666
0.4873047,-0.78204346,-0.2769165
-0.7727051,-1.3862915,-0.27398682
-0.12402344,-1.1030884,-0.28814697
0.16601562,-0.7276001,0.1749878
0.12402344,0.13885498,-0.45587158
0.06933594,0.85076904,-0.5352173
1.0019531,-2.0,1.999939
0.2939453,-1.5977173,-0.44049072
0.12597656,-0.9902954,0.30755615
-0.15454102,-0.21417236,-0.28424072
0.009765625,1.4039917,-0.348938
0.5666504,-1.1299438,-0.32696533
-0.23413086,-1.5984497,-0.00592041
-0.0715332,-0.9036255,-0.2131958
0.025146484,-0.866272,0.3463745
0.2121582,0.293396,-0.30133057
-0.008544922,0.5133667,-0.1038208
-2.0,-2.0,0.32928467
0.12963867,-1.1121216,-0.44024658
-0.03564453,-0.96051025,0.2514038
-0.05078125,-0.33477783,-0.15093994
-0.2841797,0.73480225,-0.74664307
0.21435547,-1.1843872,-0.5339966
-0.043701172,-1.5518188,-0.69195557
-0.21850586,-1.505188,-0.06915283
0.0715332,-0.5454712,0.16693115
0.1237793,0.4100952,-0.43511963
0.27124023,0.2453003,-0.5147095
-1.3100586,-1.4595337,1.7924194
-0.31689453,-1.2456665,-0.28863525
0.04663086,-0.8196411,0.5223999
-0.4362793,0.32611084,-0.35772705
0.22265625,0.38519287,-0.33648682
-0.7219238,-2.0,-0.05621338
0.37109375,-0.87994385,-0.53204346
0.2368164,-1.1655884,0.2982788
0.0390625,-0.16656494,-0.1531372
0.2355957,0.8900757,-0.25665283
0.18334961,-0.79229736,-0.2654419
0.18798828,-1.7827759,0.2399292
-0.09301758,-0.954895,-0.06036377
0.037841797,-0.46002197,0.12176514
-0.43237305,0.70843506,-0.5125122
0.39868164,-0.36090088,-0.21612549
-0.3935547,-1.3296509,0.31463623
-0.083496094,-1.56427,-0.15386963
0.06762695,-0.6370239,0.043151855
0.0793457,0.16107178,-0.44366455
0.40454102,0.9266968,-0.41314697
-1.5449219,-2.0,-2.0
0.36889648,-1.8562622,-0.54351807
-0.028076172,-1.0769653,0.07879639
-0.10546875,-0.34332275,0.008483887
-0.61621094,0.7189331,-0.32843018
0.21972656,-0.3032837,-0.3447876
-1.1071777,-1.1985474,1.6334839
-0.19799805,-1.2942505,-0.6157837
0.2902832,-1.1853638,0.22113037
0.3322754,-0.06793213,-0.28570557
0.28515625,0.7472534,-0.3682251
0.14941406,-1.7605591,-0.90631104
0.8249512,-1.6777954,-0.43096924
-0.1496582,-1.1340942,-0.007385254
-0.2512207,-0.42486572,0.1005249
-0.52490234,0.7345581,-0.4841919
0.26660156,-0.21417236,-0.5581665
-0.40625,-1.7175903,0.62176514
-0.38745117,-1.0706177,-0.5462036
0.54418945,-1.1714478,0.25286865
0.20605469,-0.15679932,-0.25421143
-0.076171875,0.7716675,-0.36090088
-0.25854492,-2.0,-1.3447876
0.31152344,-1.6843872,-0.46832275
-0.0234375,-0.92974854,-0.101135254
-0.08227539,-0.49371338,0.21820068
-0.578125,0.4376831,-0.47808838
0.42578125,-0.07623291,-0.2942505
-0.5876465,-2.0,0.55340576
-0.44702148,-1.3943481,-0.46124268
0.3798828,-0.82940674,0.14154053
0.056152344,0.020202637,-0.37872314
0.0793457,1.0929565,-0.14459229
0.23144531,-0.8464966,-0.3423462
-0.29125977,-1.5044556,-0.2744751
0.36816406,-1.545227,0.23577881
0.01977539,-0.55670166,0.04144287
-0.91308594,0.24993896,-0.3760376
0.59594727,0.1305542,-0.3977661
0.9382324,-2.0,1.999939
-0.1274414,-1.2669067,-0.97198486
0.50634766,-1.1848755,0.23699951
0.11645508,-0.21636963,-0.21099854
0.13500977,1.0297241,-0.3110962
-0.064208984,-0.3320923,-0.4656372
0.052490234,-1.4851685,0.78948975
-0.2084961,-1.484436,-0.014953613
-0.11035156,-0.69854736,0.022888184
-0.359375,0.22894287,-0.40802002
0.24682617,0.35760498,-0.57281494
1.3547363,-2.0,-2.0
-0.48095703,-1.1445923,-1.1167603
0.3491211,-1.1013794,-0.12872314
0.28735352,-0.57818604,0.18963623
0.15063477,0.55682373,-0.32476807
-0.14233398,-0.18170166,-0.5574341
0.45385742,-1.8110962,0.94573975
-0.32666016,-0.9800415,-0.2276001
0.12084961,-0.69903564,0.31121826
-0.32202148,0.3895874,-0.472229
0.23413086,0.1473999,-0.5220337
1.1135254,-2.0,1.124939
-0.7036133,-1.4700317,-0.9541626
0.38598633,-0.86260986,-0.1531372
0.51049805,-0.36505127,-0.15289307
0.27856445,0.99261475,-0.60650635
0.10205078,-0.86431885,-0.28131104
0.22802734,-1.7896118,-0.29522705
0.02709961,-1.5098267,0.37127686
0.037353516,-0.48394775,-0.20391846
-0.90722656,1.78656,-0.5471802
0.11425781,-0.56573486,-0.63848877
-0.6052246,-1.5274048,-0.054016113
-0.22558594,-1.4800415,-0.35894775
0.17578125,-1.0042114,0.06439209
0.27172852,0.13421631,-0.5708618
0.2619629,0.84246826,-0.39337158
0.91552734,-2.0,-2.0
0.5019531,-1.6541138,-0.48565674
-0.08105469,-0.9053345,0.04876709
-0.2487793,-0.3567505,-0.09283447
-0.5385742,1.140564,-0.5708618
0.52612305,-0.6445923,-0.677063
-0.79467773,-0.97076416,-0.29205322
-0.37646484,-1.3660278,-0.26861572
0.36621094,-0.5701294,0.12445068
0.27978516,0.30096436,-0.4163208
-0.34594727,0.7814331,-0.4866333
-0.056640625,-2.0,-2.0
-0.18164062,-1.829895,-0.25909424
-0.05908203,-1.0913696,0.2987671
-0.09399414,-0.38946533,-0.113342285
-0.734375,1.1957397,-0.41583252
0.5739746,-0.46905518,-0.46783447
-1.4550781,-1.8657837,-0.51446533
0.024414062,-1.4719849,-0.44195557
0.33520508,-1.0462036,0.19085693
0.19116211,0.1605835,-0.4541626
0.068847656,1.022644,-0.4932251
-2.0,-2.0,-1.1956177
0.19921875,-1.6397095,-0.60357666
-0.1665039,-1.0308228,0.07733154
-0.22998047,-0.019348145,-0.33746338
-0.40893555,1.0910034,-0.3320923
0.4152832,-0.7022095,-0.616272
-1.2363281,-1.6121216,-0.19293213
0.036132812,-1.222229,-0.46832275
0.2800293,-0.99298096,0.50335693
-0.008544922,0.3439331,-0.45367432
0.11230469,0.77996826,-0.7280884
-2.0,-2.0,1.999939
-0.8630371,-1.2271118,-0.21807861
