accelX,accelY,accelZ
-0.19433594,-0.046203613,-0.6187134
-0.6574707,-2.0,1.999939
0.45214844,-0.71417236,0.22235107
-0.33666992,-0.37945557,-0.06011963
0.1484375,0.07318115,-0.56451416
0.6791992,-2.0,0.6264038
-0.20727539,-1.0640259,-0.81207275
0.26220703,-0.5647583,-0.3291626
0.4333496,0.3444214,0.1227417
-0.9199219,-0.47052002,-1.4419556
-0.32592773,-1.3787231,-0.79522705
0.02709961,-0.2444458,0.04144287
-0.22998047,-0.06817627,-0.18511963
0.4892578,-0.24810791,-0.39068604
-0.60253906,-1.7478638,0.20965576
0.018310547,-0.5359497,-0.027648926
0.19262695,-0.14776611,-0.26153564
-0.08105469,-0.009094238,-0.6343384
-0.051757812,-2.0,1.999939
0.7319336,-0.6057739,-0.0491333
-0.29516602,-0.31402588,-0.0095825195
0.19189453,0.19989014,0.14544678
1.999939,-2.0,-2.0
-0.97802734,-0.9434204,-0.37823486
0.82373047,-0.5183716,0.4286499
0.033447266,0.07611084,-0.19073486
-0.45410156,-0.27398682,-1.3115845
-0.19116211,-1.9319458,-0.4133911
0.16699219,-0.5178833,0.10247803
-0.4362793,-0.222229,-0.085998535
0.07763672,-0.3106079,-0.51031494
-0.6376953,-2.0,1.7562866
0.22314453,-0.28204346,-0.9741821
0.27954102,-0.50177,-0.12774658
-0.056152344,0.1774292,-0.5881958
1.999939,-2.0,-1.237854
0.7080078,-0.48199463,-0.1038208
-0.33374023,-0.38360596,-0.04156494
0.059326172,-0.049865723,-0.010803223
1.999939,-2.0,-0.9612427
-0.5810547,-0.8123169,-0.8196411
0.6147461,-0.26055908,-0.25372314
0.4091797,0.27850342,0.06732178
-0.54418945,-0.5003052,-1.1377563
-0.30151367,-1.5464478,-0.83966064
0.040771484,-0.3899536,0.29803467
-0.24389648,0.32244873,-0.21954346
0.16040039,-0.48614502,-0.6682739
-1.6433105,-2.0,0.30511475
0.31030273,-0.112854004,-0.21905518
0.25830078,-0.08135986,-0.24542236
-0.22387695,-0.1038208,-0.5569458
-0.65649414,-2.0,1.999939
0.49365234,-0.28790283,0.29022217
-0.4934082,-0.124816895,-0.12359619
0.40649414,-0.3591919,-0.550354
-0.5227051,-2.0,0.8619995
0.11254883,-0.73150635,-0.79400635
0.38427734,-0.3550415,-0.097717285
0.25048828,0.3793335,-0.15509033
1.0070801,-2.0,-1.2158813
0.14819336,-1.0718384,-0.35113525
-0.1328125,-0.5745239,0.10614014
0.012207031,0.17303467,-0.0010375977
0.68603516,-0.5471802,-1.1814575
-1.1550293,-0.95928955,-0.49908447
0.57470703,-0.33599854,0.4887085
0.07397461,0.073913574,-0.20025635
-0.22509766,-0.23736572,-0.87506104
-0.6645508,-2.0,0.27752686
0.3935547,-0.5484009,0.1749878
-0.5234375,0.14007568,-0.22930908
0.35791016,-0.45318604,-0.553772
-1.8447266,-2.0,1.9252319
0.1784668,-0.427063,-0.4102173
0.25805664,-0.3821411,-0.3262329
0.032958984,0.19329834,-0.17633057
1.999939,-2.0,-1.9014282
0.37353516,-0.7420044,-0.40142822
-0.23339844,-0.53375244,-0.025939941
0.1538086,0.20843506,0.12762451
1.999939,-1.2158813,-2.0
-1.0664062,-0.8989868,-0.5886841
0.91748047,-0.26470947,0.1876831
0.107666016,0.21160889,0.022155762
-0.11401367,-0.8587036,-0.86309814
0.041015625,-1.7022095,-0.9187622
-0.036865234,-0.3743286,0.11907959
-0.20532227,0.19989014,-0.08331299
0.38964844,-0.4085083,-1.0759888
-1.9025879,-2.0,0.4381714
0.39526367,-0.4607544,-0.3899536
0.14526367,-0.17974854,-0.40118408
-0.1315918,-0.005432129,-0.68096924
0.6520996,-2.0,1.999939
0.4873047,-0.3616333,-0.08770752
-0.50146484,-0.5195923,-0.020568848
0.44702148,0.18035889,-0.45635986
0.59033203,-2.0,-0.5515747
-0.26611328,-0.5562134,-0.9680786
0.40551758,-0.4607544,0.11175537
0.39990234,0.37420654,0.04949951
-0.20483398,-1.2874146,-0.5718384
0.43408203,-1.1524048,-0.88482666
-0.15942383,-0.54351807,0.21160889
-0.0949707,0.24310303,-0.12506104
0.34448242,-0.35430908,-0.46124268
-0.8754883,-1.5249634,0.082214355
0.2355957,-0.33868408,0.20721436
0.12963867,0.08660889,-0.2835083
-0.2578125,-0.077941895,-0.6865845
-0.6508789,-2.0,0.6039429
0.32299805,-0.5125122,0.19281006
-0.5124512,0.034118652,-0.2312622
0.3330078,-0.26568604,-0.5647583
-0.07519531,-2.0,1.9447632
-0.09057617,-0.6087036,-0.84552
0.3869629,-0.41070557,-0.12408447
0.119140625,0.28753662,-0.611145
1.999939,-2.0,-0.2769165
0.71972656,-0.61260986,-0.24493408
-0.4807129,-0.6223755,0.2477417
0.2668457,0.19598389,0.04949951
1.2788086,-0.7962036,-0.98931885
-0.3762207,-1.1345825,-0.5874634
0.4375,-0.3562622,0.20721436
0.16430664,0.29925537,-0.11187744
-0.21191406,-0.4360962,-0.47076416
-0.3059082,-1.2224731,-0.76275635
0.10546875,-0.7163696,0.2267456
-0.36035156,0.230896,-0.16925049
0.37353516,-0.5112915,-0.6543579
-1.9177246,-1.4363403,-0.031311035
0.2775879,-0.38775635,-0.30914307
0.20043945,-0.051086426,-0.30133057
0.11621094,-0.20928955,-0.5376587
-0.57177734,-2.0,1.999939
0.5280762,-0.44171143,0.36761475
-0.560791,0.023376465,-0.2559204
0.265625,-0.18267822,-0.45147705
0.4111328,-2.0,1.999939
-0.21704102,-0.56085205,-0.9463501
0.5187988,-0.53912354,-0.097229004
0.12915039,0.54315186,-0.41119385
1.999939,-2.0,-2.0
0.5058594,-0.8694458,-0.12408447
-0.25024414,-0.3328247,-0.03717041
0.19506836,0.01361084,-0.04058838
1.9543457,-1.8123169,-1.1831665
-0.24853516,-1.0361938,-0.82476807
0.40063477,-0.3916626,0.013366699
0.31567383,0.4821167,0.013122559
0.19506836,-1.4160767,-0.09283447
0.43237305,-1.4297485,-0.38555908
-0.15332031,-0.5718384,-0.0713501
-0.36401367,0.12664795,-0.11627197
0.5083008,-0.3242798,-0.88287354
-2.0,-1.6260376,0.20184326
0.5437012,-0.41680908,0.24822998
0.23266602,-0.025939941,-0.18902588
-0.16308594,-0.14483643,-0.7654419
-0.8598633,-2.0,1.8773804
0.33666992,-0.49371338,0.15008545
-0.79174805,-0.07745361,-0.2852173
0.51123047,-0.36846924,-0.7774048
-0.9946289,-2.0,1.9369507
0.18481445,-0.642395,-0.77178955
0.43408203,-0.2727661,-0.24493408
0.12451172,0.27459717,-0.6790161
1.999939,-2.0,-0.34869385
0.88671875,-0.68341064,0.10345459
-0.4321289,-0.33111572,-0.16265869
0.2746582,-0.051086426,-0.4331665
-0.3095703,-2.0,1.999939
0.18237305,-0.9043579,-0.60821533
0.31347656,-0.15093994,-0.31671143
0.1496582,0.23675537,-0.5215454
1.999939,-2.0,-1.1399536
0.45898438,-1.0110474,-0.333313
-0.3371582,-0.44830322,-0.039611816
0.0146484375,0.3143921,-0.0056762695
0.8359375,-1.4519653,-0.98321533
-0.3552246,-1.0339966,-1.0725708
0.56225586,-0.13433838,-0.53985596
0.33081055,0.23138428,-0.13897705
1.692627,-2.0,-1.3753052
0.5632324,-0.90411377,-0.27398682
-0.5288086,-0.42437744,-0.17364502
0.3076172,0.117370605,0.08416748
1.8312988,-1.6643677,-1.6174927
-0.51342773,-1.03302,-0.63360596
0.5390625,-0.25372314,0.22454834
0.18676758,0.32611084,-0.19610596
0.39038086,-1.3755493,-0.7698364
0.17626953,-1.5222778,-0.5510864
0.07788086,-0.75250244,0.18548584
-0.73461914,0.697937,-0.20758057
0.19677734,-0.5791626,-0.8045044
-1.5871582,-1.5278931,-0.4697876
0.34228516,-0.8526001,0.15496826
0.2331543,0.13079834,-0.6524048
0.0859375,-0.14581299,-0.850647
-1.0583496,-1.9326782,0.4081421
0.3840332,-0.6033325,0.14154053
-0.8198242,0.24945068,-0.22027588
0.28637695,-0.42510986,-0.91900635
-1.3198242,-2.0,0.5038452
0.40966797,-1.4714966,-0.26617432
0.110839844,0.101257324,-0.47052002
0.3474121,0.33538818,-0.60821533
1.543457,-2.0,1.2433472
0.5449219,-0.44854736,0.31048584
-0.15551758,-0.31622314,-0.09576416
0.32202148,0.00970459,-0.3579712
0.5114746,-2.0,1.999939
-0.088378906,-0.9224243,-0.6675415
0.3618164,-0.19903564,-0.010070801
0.38330078,0.4381714,-0.14923096
1.7067871,-2.0,-1.1470337
0.4946289,-0.95684814,-0.19000244
-0.42138672,-0.50787354,-0.026428223
0.16503906,0.28240967,-0.08453369
0.27563477,-0.7163696,-2.0
-1.09375,-0.9182739,-1.0713501
1.015625,-0.43414307,0.7296753
-0.45092773,0.42108154,-0.2630005
-0.0031738281,-0.29693604,-1.0222778
-0.3955078,-1.7210083,-0.8428345
0.26904297,-0.6741333,0.24285889
-0.6616211,0.27313232,-0.2852173
0.52783203,-0.3171997,-0.5264282
-0.059814453,-2.0,1.999939
-0.35375977,-0.472229,-0.7007446
0.81811523,-0.018371582,0.034118652
-0.17016602,0.23382568,-0.7173462
1.999939,-2.0,1.999939
0.71972656,-0.3953247,0.1305542
-0.45507812,-0.33843994,-0.15411377
0.44018555,0.1798706,0.14227295
0.5498047,-0.90948486,-2.0
-0.94384766,-1.1026001,-0.5725708
0.95336914,-0.15948486,0.016052246
-0.19873047,0.23846436,-0.13043213
0.49316406,-1.8208618,-1.1362915
0.04321289,-1.2185669,-0.38287354
-0.10058594,-0.49176025,0.070495605
-0.12890625,0.15057373,0.0138549805
1.1103516,-0.8760376,-1.6157837
-0.7949219,-1.2490845,-0.21636963
0.42089844,-0.30010986,0.47528076
0.024658203,0.55145264,-0.3892212
-0.14086914,-0.83966064,-1.5288696
-0.18261719,-1.6245728,-0.9812622
0.084228516,-0.65826416,0.2387085
-0.2944336,0.18743896,-0.15386963
0.22338867,-0.35113525,-0.7192993
-1.5703125,-2.0,0.6871948
0.19921875,-0.553772,-0.31378174
0.08496094,-0.12774658,-0.25323486
0.0949707,0.054382324,-0.70758057
-0.62280273,-2.0,1.999939
0.43286133,-0.32159424,0.5043335
-0.38378906,-0.21392822,-0.25909424
0.17675781,-0.0154418945,-0.6087036
0.2121582,-2.0,1.999939
0.033691406,-0.8069458,-0.43658447
0.30493164,-0.362854,-0.30792236
0.21435547,0.29486084,-0.38067627
1.999939,-2.0,0.16009521
0.6608887,-0.8045044,0.17327881
-0.29248047,-0.6121216,0.13397217
0.16870117,0.16253662,0.04046631
1.999939,-1.3406372,-2.0
-0.6447754,-0.8670044,-0.4385376
0.6525879,-0.5195923,0.43841553
-0.016845703,0.4874878,-0.097717285
0.41064453,-1.5100708,-1.3179321
-0.122558594,-1.3970337,-0.49957275
0.005126953,-0.4373169,0.23699951
-0.057373047,0.16741943,-0.04864502
1.340332,-0.96954346,-1.2041626
-0.59155273,-1.2329712,-0.51763916
0.1159668,-0.64630127,0.28240967
0.3540039,0.18206787,-0.31695557
0.009521484,-0.29180908,-0.8987427
-0.54345703,-1.6829224,-0.4439087
0.32763672,-0.6638794,0.038024902
-0.47485352,-0.04034424,-0.16802979
-0.01928711,-0.13677979,-0.8530884
-0.037109375,-2.0,1.999939
0.08862305,-0.21612549,-0.81573486
0.2331543,-0.5335083,-0.10601807
-0.040527344,0.35614014,-0.66851807
0.08203125,-2.0,1.999939
0.7060547,-0.39874268,0.31121826
-0.66625977,-0.28985596,-0.049865723
0.4501953,0.06439209,0.08709717
1.2363281,-2.0,-0.33843994
-0.4074707,-0.98443604,-0.59503174
0.35229492,-0.4763794,-0.028869629
0.22485352,0.53582764,-0.16265869
0.87158203,-1.348938,-0.42071533
0.51782227,-1.0757446,-0.70758057
-0.07421875,-0.72198486,0.24334717
-0.21459961,0.12298584,-0.0076293945
0.9716797,-0.61187744,-0.9651489
-0.6977539,-0.9800415,-0.4446411
0.18554688,-0.5762329,0.15667725
0.02758789,0.27313232,-0.40289307
0.13378906,-0.19610596,-0.8960571
-0.7661133,-1.8538208,-0.26617432
0.3881836,-0.47027588,0.18475342
-0.5461426,0.02142334,-0.26519775
0.32641602,-0.3814087,-0.41583252
-1.135498,-1.6333618,0.13494873
-0.009765625,-0.35308838,-0.3171997
0.10424805,-0.16583252,-0.32305908
0.10205078,0.03265381,-0.62994385
-0.5986328,-2.0,0.9244995
0.55859375,-0.16412354,0.22747803
-0.5317383,-0.1741333,-0.16168213
0.23706055,-0.18414307,-0.44805908
-0.11035156,-2.0,1.999939
0.16455078,-0.7974243,-0.78326416
-0.06542969,-0.43048096,-0.5108032
0.4897461,0.62005615,-0.15289307
1.6081543,-2.0,-0.565979
0.5476074,-0.5203247,-0.4204712
-0.03149414,-0.85601807,0.28997803
-0.13476562,0.28826904,-0.20440674
0.96655273,-1.5112915,-0.9758911
-0.28979492,-1.2312622,-0.7866821
-0.05419922,-0.5498657,-0.066711426
0.33764648,0.34051514,-0.2720337
-0.26782227,-0.1807251,-1.0650024
-0.5349121,-1.7854614,-0.6802368
0.2980957,-0.52667236,0.15887451
-0.4362793,-0.2312622,-0.13409424
0.3942871,-0.27471924,-0.5420532
-0.75927734,-2.0,0.61932373
0.119628906,-0.5088501,-0.5540161
0.064208984,-0.11553955,-0.45343018
0.27148438,0.2555542,-0.6231079
1.999939,-2.0,1.1369019
0.5842285,-0.30792236,0.19403076
-0.30493164,-0.45220947,0.0048217773
0.23095703,0.21820068,-0.33135986
0.30029297,-2.0,-0.75323486
0.34106445,-0.8779907,-0.7295532
0.21679688,-0.40020752,-0.035949707
0.24291992,0.5734253,0.077819824
-0.27661133,-1.0645142,-1.3206177
-0.26464844,-1.204895,-0.93634033
0.15698242,-0.4961548,0.2189331
-0.36987305,0.10687256,-0.09893799
0.68603516,-0.5496216,-0.78448486
-0.7319336,-1.159729,-0.029846191
0.26049805,-0.48760986,0.15814209
0.036376953,0.14642334,-0.40655518
0.0007324219,-0.124816895,-0.8965454
-0.62768555,-1.7666626,-0.6213989
0.43115234,-0.44659424,0.01727295
-0.67163086,-0.070129395,-0.28692627
0.33325195,-0.14898682,-0.56866455
-0.4465332,-2.0,1.7399292
0.107421875,-0.65704346,-0.6018677
0.27563477,-0.40020752,-0.04937744
0.16699219,0.27093506,-0.5960083
1.5522461,-2.0,-0.85723877
0.6491699,-0.4265747,-0.078186035
-0.26489258,-0.66534424,0.23406982
0.11450195,0.18670654,-0.0044555664
1.2180176,-1.161438,-1.164856
-0.49609375,-0.99102783,-0.7671509
0.2043457,-0.6069946,0.23968506
0.06665039,0.42938232,-0.27545166
-0.0546875,-0.43951416,-1.0112915
-0.5280762,-1.5132446,-0.9841919
0.30151367,-0.255188,0.105163574
-0.40551758,0.04046631,-0.27423096
