accelX,accelY,accelZ
0.17944336,-1.2920532,-0.08111572
0.38671875,-1.1929321,-0.11407471
0.16552734,-0.7210083,-0.30303955
0.09399414,-0.8911743,-0.14581299
0.07055664,-0.54644775,-0.120666504
0.13696289,-0.64556885,-0.1194458
0.13769531,-1.0852661,-0.23638916
-0.13671875,-1.5515747,-0.06842041
0.16137695,-1.3709106,-0.44854736
0.42089844,-0.7649536,-0.28204346
0.26611328,-0.93170166,-0.10015869
0.03857422,-0.8731079,-0.021057129
0.096191406,-0.5869751,0.0079956055
0.18188477,-0.5198364,-0.03253174
0.234375,-0.9248657,0.09320068
0.051757812,-0.8257446,-0.22198486
0.032226562,-1.1743774,-0.018615723
-0.02368164,-0.9734497,0.0004272461
-0.10595703,-1.2078247,-0.066223145
0.5805664,-1.5222778,-0.37823486
0.16210938,-0.5935669,-0.06964111
0.10229492,-0.9915161,-0.077941895
0.12719727,-0.8147583,-0.05328369
0.1586914,-0.92437744,0.050231934
0.14331055,-0.83966064,0.043640137
0.17504883,-1.2141724,0.10443115
0.3251953,-1.2988892,-0.24542236
0.28588867,-1.1248169,-0.43218994
0.13549805,-0.7959595,-0.44854736
0.15429688,-0.87286377,-0.21392822
0.00390625,-0.52593994,-0.030822754
0.13061523,-0.6116333,-0.16778564
0.11010742,-1.0757446,-0.2119751
-0.041503906,-1.4990845,-0.13336182
-0.025390625,-1.3755493,-0.2732544
0.61499023,-0.9143677,-0.24957275
0.29663086,-0.76568604,-0.14971924
0.12695312,-0.7925415,-0.023742676
0.0063476562,-0.59039307,-0.003479004
0.13085938,-0.7124634,-0.0005493164
0.15161133,-1.2827759,0.09857178
0.22558594,-1.2984009,0.074157715
0.35131836,-1.2825317,-0.23370361
0.072021484,-0.74591064,-0.36236572
0.1340332,-1.1575317,-0.03692627
0.043945312,-0.6116333,-0.093322754
0.06542969,-0.6514282,-0.05718994
0.024658203,-0.68585205,-0.15216064
-0.032714844,-1.2214966,-0.109191895
0.025146484,-1.5422974,-0.010314941
0.36669922,-1.2481079,-0.37261963
0.13671875,-0.81134033,-0.13555908
0.28857422,-0.9060669,-0.15875244
0.023925781,-0.68170166,-0.035705566
0.2133789,-0.5708618,-0.01373291
0.16821289,-0.7893677,-0.04498291
0.16674805,-1.2024536,0.029968262
0.14624023,-1.3882446,-0.0022583008
0.55078125,-1.1734009,-0.21490479
0.15405273,-0.88653564,-0.24102783
0.095214844,-0.7788696,-0.2312622
0.2590332,-0.7642212,-0.057922363
-0.055908203,-0.6524048,-0.046203613
0.1015625,-0.69610596,-0.15948486
0.067871094,-1.2085571,-0.19049072
0.032226562,-1.4124146,0.012390137
0.27856445,-1.3064575,-0.35699463
0.31982422,-0.9319458,-0.051818848
0.41088867,-0.7888794,-0.27227783
0.21777344,-0.78375244,0.050964355
0.015380859,-0.60723877,-0.0017700195
0.111083984,-0.71954346,0.06439209
0.2368164,-1.0310669,0.11126709
0.07006836,-1.2251587,0.16668701
0.24121094,-1.303772,-0.040100098
0.25805664,-1.2727661,0.027282715
0.14135742,-0.7752075,-0.26055908
0.16088867,-0.89141846,-6.1035156e-05
-0.0703125,-0.65338135,-0.003479004
0.0859375,-0.61602783,-0.13238525
0.07421875,-0.8599243,-0.12530518
0.0107421875,-1.2695923,-0.11871338
-0.14257812,-1.322815,-0.18414307
0.55810547,-1.352356,-0.3147583
0.20996094,-0.6873169,-0.2276001
0.19067383,-0.90216064,-0.059631348
-0.04248047,-0.72979736,0.020202637
-0.01977539,-0.5845337,-0.10015869
0.23901367,-0.9133911,-0.01373291
0.018066406,-0.7617798,-0.004211426
0.072753906,-0.6445923,0.005065918
0.031982422,-0.7324829,-0.002746582
0.21142578,-1.6021118,0.17596436
0.064208984,-1.4319458,-0.14581299
0.31762695,-1.2319946,-0.35968018
0.1887207,-0.678772,-0.40386963
0.08959961,-0.8609009,-0.2341919
0.025878906,-0.6621704,-0.19976807
-0.02319336,-0.7737427,-0.12506104
0.09741211,-0.8057251,-0.2546997
0.059570312,-1.0862427,-0.24737549
0.048828125,-1.2075806,-0.1729126
0.1821289,-1.3381958,-0.34039307
0.3190918,-0.93170166,-0.22540283
0.31225586,-0.7144165,-0.2366333
0.17553711,-0.82037354,0.014831543
0.08081055,-0.6560669,-0.07965088
0.15625,-0.7114868,-0.06036377
0.19213867,-1.0552368,-0.044006348
0.14160156,-1.3377075,-0.059143066
0.47509766,-1.2808228,-0.3657837
0.036621094,-1.4717407,-0.42803955
0.2553711,-1.2532349,-0.2625122
0.29907227,-0.58917236,-0.4805298
0.2746582,-1.029602,-0.13311768
0.088134766,-0.69610596,-0.14849854
0.103271484,-0.6758423,-0.06695557
0.045898438,-0.6963501,-0.043273926
0.056396484,-0.9924927,0.13226318
-0.015625,-1.0354614,0.11468506
0.10058594,-1.0403442,0.124694824
0.2927246,-1.3655396,-0.3369751
-0.107177734,-0.71295166,-0.4500122
0.21484375,-1.2393188,-0.097961426
-0.0041503906,-0.76275635,-0.101379395
0.03149414,-0.8154907,-0.1663208
-0.1184082,-0.92803955,-0.08013916
0.024902344,-1.0359497,-0.02935791
-0.13232422,-1.2444458,0.018737793
0.111816406,-1.4209595,-0.3826294
0.24169922,-1.045227,-0.26763916
0.56103516,-0.8855591,-0.26348877
0.17773438,-0.9121704,-0.078186035
0.08959961,-0.65460205,-0.18048096
0.03955078,-0.9915161,-0.2793579
0.036865234,-1.4136353,-0.26983643
0.04272461,-1.2173462,-0.48565674
0.5007324,-1.0730591,-0.12774658
0.21850586,-0.7246704,-0.14874268
0.15966797,-0.772522,-0.07305908
0.008300781,-0.7439575,-0.027160645
0.25512695,-0.69317627,-0.08355713
0.15429688,-0.8731079,-0.008117676
0.15942383,-1.1907349,-0.027648926
0.29541016,-1.4724731,-0.026672363
0.40014648,-1.1990356,-0.21295166
0.09277344,-0.75006104,-0.24224854
0.16210938,-0.81378174,-0.25958252
0.12402344,-0.7354126,-0.12359619
-0.020507812,-0.7180786,-0.022277832
0.080078125,-0.7012329,-0.16192627
-0.037353516,-1.1189575,-0.035705566
0.026611328,-1.3137817,-0.109436035
0.076416016,-1.3630981,-0.22735596
0.32543945,-1.248352,-0.046203613
0.28637695,-0.6890259,-0.21392822
0.26123047,-0.8513794,0.039489746
0.028076172,-0.7776489,0.07196045
0.083984375,-0.64141846,0.032409668
0.1694336,-0.9146118,0.097351074
0.1538086,-1.1841431,0.19207764
0.16625977,-1.1692505,-0.01739502
0.23510742,-1.295227,-0.1716919
0.107910156,-0.78985596,-0.21954346
0.13916016,-0.9668579,-0.20489502
0.063964844,-0.8340454,-0.10211182
0.026123047,-0.6956177,-0.085754395
0.01586914,-0.800354,-0.0947876
0.08325195,-0.9768677,-0.20318604
-0.0026855469,-1.3059692,-0.059631348
-0.07788086,-1.2764282,-0.23736572
0.34765625,-1.2664185,-0.22198486
0.08496094,-0.75250244,-0.20635986
0.2680664,-0.9981079,-0.12408447
0.032958984,-0.8320923,0.031921387
0.04345703,-0.6856079,-0.038879395
0.14233398,-0.7605591,-0.02545166
0.10180664,-1.138977,0.014831543
0.24707031,-1.2075806,0.0692749
0.24853516,-1.3196411,-0.22540283
0.16015625,-0.928772,-0.21783447
0.14355469,-0.7942505,-0.3255005
0.10107422,-0.8870239,-0.14971924
0.072753906,-0.69659424,-0.04522705
0.13598633,-0.68170166,-0.14215088
0.05883789,-0.86187744,-0.08477783
0.018798828,-1.3103638,-0.13433838
0.030517578,-1.375061,-0.32476807
0.34204102,-1.2546997,-0.1687622
0.4663086,-0.6382446,-0.44317627
0.3388672,-0.90582275,-0.11798096
0.07861328,-0.78619385,-0.059631348
0.12890625,-0.71954346,0.008728027
0.028076172,-0.9651489,-0.1729126
0.016357422,-1.0222778,-0.19244385
-0.14428711,-1.1956177,-0.1975708
0.2241211,-1.503479,-0.6367798
0.24316406,-0.90875244,-0.15509033
0.30786133,-0.71221924,-0.3201294
0.1274414,-0.80670166,-0.19024658
0.010986328,-0.6375122,-0.12310791
0.09423828,-0.5952759,-0.14190674
0.20019531,-1.0081177,-0.14654541
0.16552734,-1.361145,0.0026245117
0.36938477,-1.2857056,-0.26153564
0.20532227,-1.0342407,-0.33843994
0.10229492,-0.63848877,-0.5064087
0.09814453,-0.90948486,-0.32452393
0.03881836,-0.7070923,-0.13043213
0.04248047,-0.7210083,-0.15753174
0.078125,-0.90875244,-0.2559204
-0.055419922,-1.2695923,-0.22930908
0.04272461,-1.1436157,-0.29815674
0.2919922,-1.3606567,-0.41583252
0.26782227,-0.83795166,-0.2666626
0.24169922,-0.7449341,-0.21466064
0.21411133,-0.8591919,0.062927246
0.079589844,-0.6367798,-0.042785645
0.13671875,-0.7017212,-0.035461426
0.103027344,-1.0999146,-0.010314941
0.19726562,-1.2774048,0.02508545
0.22827148,-1.2901001,-0.27008057
0.14526367,-1.0354614,-0.40924072
0.3173828,-0.7398071,-0.43121338
0.14526367,-0.88482666,-0.24346924
-0.060546875,-0.77008057,-0.07867432
0.061523438,-0.6824341,-0.22027588
-0.001953125,-0.8032837,-0.11993408
0.0063476562,-0.88165283,-0.13897705
-0.03173828,-1.1394653,0.0053100586
-0.13110352,-1.1345825,-0.015197754
0.01586914,-1.61969,-0.16827393
0.31860352,-0.68927,-0.2444458
0.25463867,-0.8374634,-0.09210205
0.13476562,-0.8965454,-0.06964111
0.059814453,-0.86065674,-0.0076293945
0.14697266,-0.98272705,0.046569824
0.036376953,-1.0510864,-0.21954346
-0.023925781,-1.4797974,-0.13897705
0.24975586,-1.08844,-0.46881104
0.28027344,-0.8897095,-0.16290283
0.22509766,-0.7334595,-0.10723877
0.17211914,-0.6519165,-0.0012817383
0.1694336,-0.68536377,-0.02130127
0.15893555,-0.8128052,-0.08380127
0.20581055,-1.1184692,0.0004272461
0.17700195,-1.2661743,0.009460449
0.32348633,-1.2102661,-0.2625122
0.23266602,-0.9902954,-0.30596924
0.12475586,-0.7593384,-0.3657837
0.20288086,-0.8076782,-0.19024658
0.0073242188,-0.60650635,-0.09576416
0.052001953,-0.70928955,-0.23638916
0.013671875,-1.1372681,-0.25665283
-0.024414062,-1.4026489,-0.27886963
0.26293945,-1.2214966,-0.43243408
0.19165039,-0.723938,-0.12872314
0.19555664,-0.79351807,-0.19366455
0.19677734,-0.80426025,-0.12506104
0.12060547,-0.70440674,-0.065979004
0.13330078,-0.71710205,-0.101135254
0.21020508,-1.1704712,-0.055480957
0.18017578,-1.2466431,-0.031311035
0.3449707,-1.2546997,-0.2962036
0.11767578,-0.8418579,-0.2576294
0.11816406,-0.7971802,-0.2949829
0.087646484,-0.85162354,-0.11773682
0.05810547,-0.70684814,-0.07989502
0.08154297,-0.8106079,-0.15338135
-0.014404297,-1.1987915,-0.20831299
-0.020263672,-1.2410278,-0.25030518
0.34643555,-1.3040161,-0.38897705
0.37573242,-0.78570557,-0.15631104
0.3564453,-0.77960205,-0.109436035
0.18261719,-0.8076782,-0.032287598
0.19848633,-0.69976807,-0.09307861
0.17675781,-0.7744751,-0.023010254
0.26904297,-1.0147095,-0.003479004
0.16186523,-1.2454224,-0.043518066
0.40576172,-1.2046509,-0.3164673
0.25439453,-0.97613525,-0.35357666
0.1381836,-0.74224854,-0.3562622
0.15942383,-0.8545532,-0.25006104
-0.0056152344,-0.71221924,-0.10992432
0.04296875,-0.7539673,-0.22393799
-0.08129883,-0.9451294,-0.20440674
0.0017089844,-1.0349731,-0.18389893
0.024902344,-1.2356567,-0.2966919
0.20922852,-1.4273071,-0.40533447
0.15820312,-0.84210205,-0.16436768
0.32250977,-0.7588501,-0.16705322
0.09106445,-0.8464966,0.035827637
0.13500977,-0.7739868,-0.0010375977
0.18359375,-0.6860962,0.011169434
0.13085938,-0.9429321,0.066345215
0.08642578,-1.1726685,0.11224365
0.14404297,-1.1817017,-0.08258057
0.37646484,-1.4351196,-0.2156372
0.17944336,-0.63775635,-0.36724854
0.20825195,-1.0166626,-0.10601807
-0.0034179688,-0.85406494,-0.13116455
0.09033203,-0.7017212,-0.085510254
-0.009277344,-0.69195557,-0.07940674
-0.03857422,-0.8435669,-0.0256958
-0.017333984,-1.1130981,-0.006652832
-0.0637207,-1.1394653,0.0026245117
-0.012451172,-1.572815,-0.19024658
0.5209961,-0.8609009,-0.36114502
0.14941406,-0.8804321,-0.08526611
0.16992188,-0.85235596,-0.18365479
0.0925293,-0.89190674,0.040222168
0.15161133,-0.802063,-0.070373535
0.15429688,-1.1455688,-0.016662598
0.114746094,-1.050354,-0.15753174
0.5788574,-1.3128052,-0.4500122
0.03857422,-0.8928833,-0.4883423
0.32202148,-0.85528564,-0.47296143
0.12866211,-0.80914307,-0.32037354
0.1430664,-0.6799927,-0.23956299
0.05493164,-0.710022,-0.27789307
0.07373047,-0.87872314,-0.32354736
-0.041015625,-1.2866821,-0.25299072
0.22094727,-1.2080688,-0.5442505
0.31420898,-0.91973877,-0.17559814
0.28051758,-0.7173462,-0.31158447
0.16308594,-0.86505127,-0.10430908
0.08203125,-0.6980591,-0.042785645
0.14794922,-0.62823486,-0.04547119
0.1508789,-0.97662354,-0.018371582
0.123291016,-1.3887329,0.12664795
0.33007812,-1.342102,-0.14068604
0.20092773,-1.1299438,-0.25543213
0.08959961,-0.7505493,-0.27642822
0.03100586,-0.8352661,-0.2354126
0.03491211,-0.74786377,-0.055480957
0.07421875,-0.7295532,-0.12554932
0.024414062,-0.85723877,-0.20758057
0.071777344,-1.2107544,-0.18463135
0.05834961,-1.2234497,-0.11480713
0.23388672,-1.3606567,-0.31695557
0.2722168,-0.68951416,-0.36187744
0.21899414,-0.8633423,-0.1741333
0.13110352,-0.8411255,-0.18170166
0.061035156,-0.847229,-0.00030517578
0.047607422,-0.6856079,-0.08404541
0.078125,-0.82940674,0.05316162
-0.061035156,-0.9710083,0.1293335
0.08325195,-0.9956665,0.07244873
0.08984375,-1.3286743,-0.113342285
0.05053711,-1.0847778,-0.30548096
0.09765625,-0.75323486,-0.3118286
0.03466797,-1.0828247,-0.19390869
-0.030517578,-0.8032837,-0.15826416
-0.0043945312,-0.90045166,-0.15167236
-0.10644531,-0.85479736,-0.1572876
-0.0078125,-1.1694946,-0.16729736
-0.13452148,-1.144104,-0.2000122
0.38842773,-1.5496216,-0.39508057
0.18945312,-0.7608032,-0.3526001
0.5280762,-0.78448486,-0.33258057
0.095947266,-0.83599854,-0.042297363
0.052001953,-0.6951294,-0.08258057
0.099365234,-0.72784424,-0.062072754
0.21508789,-1.0811157,-0.04473877
0.20263672,-1.2905884,-0.12823486
0.47998047,-1.3401489,-0.5029907
0.06933594,-0.6741333,-0.5005493
0.20214844,-0.9089966,-0.22149658
0.084472656,-0.770813,-0.18243408
0.041992188,-0.74298096,-0.14581299
-0.0021972656,-0.8101196,-0.1765747
0.0146484375,-1.079895,-0.16363525
0.064697266,-1.2359009,-0.24176025
0.24804688,-1.3128052,-0.4397583
0.39379883,-0.89727783,-0.13531494
0.3203125,-0.72540283,-0.28204346
0.19970703,-0.8508911,-0.08087158
0.14648438,-0.6602173,-0.016906738
0.16503906,-0.65826416,-0.02960205
0.22241211,-1.0186157,-0.06500244
