accelX,accelY,accelZ
0.10595703,-0.96466064,0.27703857
0.13476562,-0.8897095,0.29144287
0.28588867,-0.9324341,0.30291748
0.1640625,-1.0872192,0.36761475
0.08984375,-0.89849854,0.32147217
0.13720703,-0.86505127,0.293396
0.14648438,-0.9307251,0.3637085
0.14648438,-0.9092407,0.33953857
0.11743164,-0.94488525,0.3788452
0.17822266,-0.98565674,0.25897217
0.08496094,-1.4151001,0.3378296
0.1003418,-1.1177368,0.17108154
0.13183594,-0.9290161,-0.105773926
0.0012207031,-1.0056763,0.0758667
-0.023925781,-0.8945923,0.08514404
-0.034179688,-0.77960205,0.047058105
0.12158203,-0.9324341,0.07269287
0.18920898,-1.1638794,0.040222168
0.018066406,-1.2529907,0.09490967
0.55981445,-1.0640259,-0.07623291
0.34106445,-0.85113525,-0.046936035
0.20776367,-0.90093994,0.14447021
0.1977539,-0.70806885,0.13909912
0.11376953,-0.6633911,0.17327881
0.06713867,-0.8233032,0.21380615
0.27001953,-1.0681763,0.2958374
0.2631836,-1.2249146,0.31658936
0.24365234,-1.2827759,0.19378662
0.42333984,-0.90753174,-0.085998535
0.18652344,-0.9602661,0.06048584
-0.006591797,-0.7402954,0.09100342
0.08325195,-0.78302,0.058532715
0.11254883,-1.0838013,0.03314209
0.08666992,-1.3591919,0.09442139
0.36816406,-1.2012329,-0.1921997
0.17114258,-0.8652954,-0.06768799
0.22338867,-0.9182739,0.07366943
0.19189453,-0.7918091,0.13323975
0.19970703,-0.70196533,0.09710693
0.092285156,-0.8753052,0.2086792
0.24389648,-0.8899536,0.21478271
0.22583008,-1.0838013,0.3012085
0.43823242,-1.3872681,0.09637451
0.21459961,-1.0239868,-0.12408447
0.107666016,-0.9714966,-0.070373535
0.02709961,-0.88848877,0.015808105
0.041259766,-0.7966919,-0.025939941
0.068847656,-0.850647,0.014099121
0.079833984,-1.1182251,0.016052246
0.080566406,-1.3279419,-0.026184082
0.5708008,-1.192688,-0.20684814
0.099365234,-0.7481079,-0.12506104
0.23657227,-0.9614868,0.046569824
0.21655273,-0.79888916,0.101501465
0.19897461,-0.73809814,0.12689209
0.23046875,-0.83380127,0.17303467
0.24707031,-1.0278931,0.24188232
0.15332031,-1.2319946,0.08685303
0.026123047,-1.133606,-0.030334473
0.18188477,-0.94854736,-0.055480957
0.07348633,-0.9121704,0.0040893555
0.013916016,-0.8982544,0.028503418
0.099853516,-0.7703247,0.0004272461
0.053955078,-0.8928833,-0.0115356445
0.08569336,-1.3399048,-0.06549072
0.004638672,-1.3040161,-0.05206299
0.65844727,-0.99346924,-0.11236572
0.44726562,-0.83428955,-0.085998535
0.18579102,-0.8530884,0.054870605
0.22753906,-0.69610596,0.08929443
0.14746094,-0.803772,0.14959717
0.17333984,-0.9282837,0.21453857
0.15820312,-1.06427,0.39642334
0.53564453,-1.1331177,0.14837646
-0.012207031,-0.9741821,-0.17633057
0.16357422,-1.0930786,-0.0134887695
0.07397461,-0.8591919,-0.015930176
0.014160156,-0.79888916,-0.014221191
0.0871582,-0.90216064,-0.038635254
0.1694336,-1.1570435,-0.018859863
0.24316406,-1.2302856,-0.011779785
0.14501953,-1.1455688,-0.17755127
0.029296875,-0.9573364,-0.024475098
0.25097656,-0.9429321,0.042663574
0.14453125,-0.8369751,0.13812256
0.14331055,-0.6968384,0.11102295
0.16015625,-0.84942627,0.20013428
0.12646484,-0.9837036,0.25482178
0.1730957,-0.9729614,0.26263428
0.23510742,-1.0991821,0.19354248
0.11328125,-1.3418579,0.22943115
0.13964844,-0.8928833,-0.013000488
0.05908203,-0.97125244,-0.08843994
0.06982422,-0.97784424,0.059020996
-0.026367188,-0.8452759,0.066589355
0.06640625,-0.8875122,-0.019592285
0.09472656,-1.1863403,0.027038574
0.12768555,-1.2525024,-0.023498535
0.71533203,-1.0535278,-0.21734619
0.29370117,-0.87457275,-0.07281494
0.3383789,-0.8726196,0.11077881
0.2861328,-0.7461548,0.086120605
0.22851562,-0.68292236,0.15057373
0.17797852,-0.80792236,0.2111206
0.19555664,-0.9326782,0.276062
0.2006836,-0.9614868,0.27435303
0.16992188,-1.1126099,0.34246826
0.4519043,-1.2390747,0.28729248
0.32226562,-1.0332642,-0.013244629
0.35107422,-0.8982544,-0.010559082
0.20410156,-0.923645,0.015319824
0.083740234,-0.8045044,0.055114746
0.012451172,-0.8389282,0.13323975
0.05517578,-0.91412354,0.1461792
0.028808594,-0.9314575,0.17230225
0.09741211,-0.97003174,0.20257568
0.037109375,-0.9336548,0.14837646
0.07104492,-1.08844,0.21429443
0.6032715,-1.4475708,0.23358154
0.30737305,-0.70440674,-0.15435791
0.27075195,-0.9968872,0.13006592
0.23388672,-0.9102173,0.21575928
0.20727539,-0.8272095,0.22357178
0.15722656,-0.8858032,0.32147217
0.1159668,-0.84869385,0.37298584
0.20654297,-0.90631104,0.371521
0.16870117,-1.0903931,0.3534546
0.35595703,-1.4502563,0.14813232
0.08227539,-0.8023071,-0.066711426
0.2084961,-1.2788696,0.02532959
0.028564453,-0.894104,0.06536865
0.09716797,-0.83966064,0.045837402
-0.068359375,-0.9717407,0.1071167
-0.053955078,-1.0166626,0.13397217
0.05419922,-0.97198486,0.14056396
0.049316406,-1.1900024,0.22479248
-0.034179688,-1.3660278,0.10296631
0.5678711,-1.2036743,-0.21173096
0.44067383,-0.7588501,-0.21783447
0.3479004,-0.84869385,-0.06304932
0.4555664,-0.76397705,0.07293701
0.26733398,-0.74884033,0.097839355
0.19702148,-0.7661743,0.17694092
0.25952148,-0.84942627,0.23602295
0.24511719,-0.88604736,0.27142334
0.23657227,-1.0918579,0.08294678
-0.03955078,-1.5403442,0.246521
0.37109375,-0.95758057,-0.19195557
0.1459961,-0.96661377,-0.10699463
0.08911133,-0.8755493,-0.015930176
0.04736328,-0.80352783,0.0014038086
0.12207031,-0.84210205,-0.046691895
0.21240234,-1.1626587,-0.03741455
0.15600586,-1.2339478,-0.085510254
0.57666016,-1.0327759,-0.12432861
0.19580078,-0.90631104,-0.12921143
0.2770996,-0.8743286,0.054870605
0.1965332,-0.7349243,0.12054443
0.24072266,-0.6980591,0.09197998
0.15209961,-0.835022,0.20672607
0.14477539,-0.9295044,0.26531982
0.30688477,-0.9668579,0.2741089
0.17285156,-1.1228638,0.2814331
0.32666016,-1.4741821,0.2177124
0.2722168,-0.9216919,-0.08013916
0.09667969,-1.0200806,-0.08111572
0.06762695,-0.88287354,0.011169434
0.016845703,-0.848938,-0.025939941
0.07348633,-0.9819946,0.030944824
0.14477539,-1.2573853,-0.0178833
0.17700195,-1.1194458,-0.02935791
0.4020996,-0.94000244,-0.03375244
0.18457031,-0.92681885,0.014343262
0.3317871,-0.9089966,0.11444092
0.21118164,-0.7202759,0.11810303
0.1809082,-0.7029419,0.18450928
0.23706055,-0.90045166,0.2855835
0.20581055,-0.9229126,0.30560303
0.22290039,-0.9741821,0.27264404
0.29736328,-1.2883911,0.23699951
-0.009765625,-1.2141724,0.19622803
0.17895508,-0.8635864,-0.05230713
0.03857422,-0.942688,0.0211792
0.060058594,-0.90411377,0.12420654
0.075683594,-0.80548096,0.036071777
0.1015625,-0.9429321,0.05609131
0.14526367,-1.1494751,0.07635498
0.060791016,-1.3147583,0.10223389
0.47216797,-0.9793091,-0.023986816
0.3491211,-0.9180298,-0.022766113
0.3095703,-0.82037354,0.07952881
0.19067383,-0.79937744,0.14959717
0.18701172,-0.7554321,0.16448975
0.16699219,-0.88409424,0.2526245
0.12817383,-0.8953247,0.24481201
0.13354492,-1.0100708,0.2579956
0.14746094,-1.272522,0.33148193
0.1899414,-1.3535767,0.10345459
0.18920898,-0.9380493,-0.19830322
0.03515625,-0.95025635,-0.058410645
-0.00024414062,-0.94195557,-0.062316895
0.056884766,-0.8267212,-0.043762207
0.08251953,-0.8152466,-0.028137207
0.072753906,-0.99346924,0.012878418
0.12695312,-1.2576294,-0.024230957
0.019042969,-1.2608032,-0.03717041
0.6816406,-0.9771118,-0.008117676
0.45507812,-0.7854614,-0.21148682
0.28027344,-0.93096924,0.120788574
0.31274414,-0.7625122,0.12445068
0.22607422,-0.6865845,0.10321045
0.14770508,-0.8154907,0.19256592
0.21655273,-0.96099854,0.29364014
0.31396484,-1.0584106,0.25360107
0.43725586,-1.2053833,0.0993042
0.09326172,-1.0344849,0.070739746
0.21264648,-0.95880127,-0.16802979
0.11791992,-0.92071533,-0.14874268
0.0063476562,-0.8772583,-0.078186035
0.046875,-0.8250122,-0.044006348
0.02734375,-0.8731079,0.010437012
0.11010742,-0.9277954,-0.0095825195
0.07397461,-1.22052,0.048034668
0.05029297,-1.2600708,-0.041809082
0.46557617,-1.1687622,-0.024719238
0.42504883,-0.8064575,-0.11578369
0.40454102,-0.892395,0.10028076
0.3322754,-0.80718994,0.08392334
0.2487793,-0.6995239,0.07293701
0.1550293,-0.7390747,0.12591553
0.20410156,-1.0166626,0.18572998
0.27661133,-1.1275024,0.25946045
0.43164062,-1.4116821,0.094177246
0.22216797,-0.94244385,-0.16656494
0.103759766,-0.93096924,-0.08843994
0.11767578,-0.89971924,0.026794434
0.03466797,-0.86431885,0.0368042
0.12792969,-0.7839966,-0.013977051
0.15771484,-0.8682251,0.025817871
0.051513672,-0.99102783,0.08026123
0.04345703,-1.333313,0.10296631
0.03930664,-1.3045044,-0.19390869
0.36669922,-1.0005493,0.090026855
0.6398926,-0.8345337,-0.17486572
0.37231445,-0.79351807,0.012390137
0.2824707,-0.7437134,0.07318115
0.26049805,-0.80963135,0.1437378
0.2578125,-0.8171997,0.16668701
0.2397461,-0.8467407,0.26068115
0.22021484,-0.8394165,0.31878662
0.28076172,-0.9512329,0.31048584
0.22875977,-1.0584106,0.28729248
0.5756836,-1.319397,-0.037902832
0.15185547,-0.85040283,0.054138184
0.2290039,-1.0220337,0.053894043
0.15917969,-0.81036377,0.10760498
0.18945312,-0.8694458,0.12640381
0.07543945,-0.94732666,0.18890381
0.08178711,-0.99176025,0.19451904
0.118652344,-0.9902954,0.1708374
0.020019531,-1.1931763,0.22332764
0.51904297,-1.0291138,-0.020568848
0.45751953,-0.81866455,-0.047424316
0.35058594,-1.0088501,-0.0335083
0.05029297,-0.79644775,0.024353027
0.16552734,-0.96588135,0.090026855
0.20361328,-1.0574341,0.11248779
0.09399414,-1.2114868,0.18426514
0.35302734,-1.3345337,-0.109436035
0.2331543,-0.81451416,-0.07989502
0.035888672,-0.9102173,-0.112854004
-0.015625,-0.8357544,0.00579834
0.09887695,-0.8206177,-0.027160645
0.11352539,-1.1109009,-0.0178833
0.15527344,-1.2966919,-0.066467285
-0.026855469,-1.0698853,-0.14483643
0.55200195,-1.0471802,0.012878418
0.29492188,-0.7727661,-0.007873535
0.13378906,-0.8484497,0.10076904
0.19189453,-0.70147705,0.07537842
0.1899414,-0.8538208,0.16741943
0.2783203,-1.0552368,0.16107178
0.3461914,-1.1370239,0.27288818
0.41064453,-1.1785278,0.105407715
0.14770508,-0.87579346,-0.12554932
0.19604492,-1.0325317,0.0067749023
-0.022705078,-0.9180298,0.06414795
0.08691406,-0.8101196,0.038513184
0.13305664,-0.9968872,-0.03765869
0.15161133,-1.1729126,-0.077697754
0.08862305,-1.1658325,-0.11602783
0.6435547,-1.0159302,-0.07867432
0.35107422,-0.8862915,-0.012756348
0.23388672,-0.8789673,0.15496826
0.20166016,-0.71173096,0.09222412
0.21728516,-0.70635986,0.13519287
0.22363281,-0.90948486,0.23602295
0.2199707,-0.9209595,0.22113037
0.3005371,-0.9246216,0.21551514
0.39770508,-1.0813599,0.29559326
0.44677734,-1.281311,0.2929077
0.27539062,-1.0037231,-0.009338379
0.14916992,-0.98516846,0.00091552734
0.08886719,-0.8777466,0.09222412
0.052001953,-0.8406372,0.08514404
0.111816406,-0.8843384,0.054138184
0.09472656,-1.0545044,0.035095215
0.1640625,-1.2612915,0.09515381
0.3112793,-1.1272583,-0.04107666
0.15673828,-0.8731079,0.066101074
0.3544922,-0.8599243,0.05633545
0.19970703,-0.8340454,0.16571045
0.21801758,-0.76812744,0.15106201
0.22949219,-0.8106079,0.19256592
0.2368164,-0.9229126,0.2658081
0.23461914,-0.9649048,0.2675171
0.20532227,-1.050354,0.1552124
0.3371582,-1.4299927,0.22161865
0.21020508,-0.9241333,-0.054992676
0.08862305,-0.9487915,-0.049865723
0.04272461,-0.9692993,-0.008117676
0.030761719,-0.8862915,0.04046631
0.030029297,-0.87506104,0.0040893555
0.115234375,-1.0220337,0.07684326
0.09106445,-1.2385864,0.017028809
0.08544922,-1.2771606,-0.085754395
0.47827148,-0.942688,-0.042297363
0.31933594,-0.80963135,-0.0791626
0.2685547,-0.80963135,0.054870605
0.2824707,-0.7564087,0.027038574
0.19458008,-0.7715454,0.11126709
0.21411133,-0.8604126,0.113708496
0.2854004,-1.0025024,0.16107178
0.31811523,-1.0708618,0.14178467
0.5136719,-1.2727661,0.001159668
0.045166016,-0.86138916,-0.11895752
0.18359375,-0.92633057,-0.11846924
0.11206055,-0.9031372,-0.07232666
0.096191406,-0.88067627,-0.00592041
0.1184082,-0.87579346,0.018005371
0.14648438,-0.97784424,0.014343262
0.18920898,-1.1885376,0.010925293
0.1977539,-1.260315,-0.055725098
0.4033203,-1.020813,-0.07867432
0.38378906,-0.8491821,-0.04498291
0.14233398,-0.90216064,0.21185303
0.28295898,-0.7774048,0.10491943
0.2175293,-0.7258911,0.13543701
0.2006836,-0.8682251,0.20452881
0.24511719,-0.99224854,0.21063232
0.31518555,-1.1895142,0.18963623
0.23364258,-1.3413696,0.10369873
0.24389648,-0.88287354,-0.101135254
0.22607422,-0.9458618,-0.09283447
0.046142578,-0.8814087,0.10076904
0.009033203,-0.84552,0.0045776367
0.076171875,-0.9512329,0.047058105
0.1772461,-1.1018677,0.010437012
0.12524414,-1.1433716,-0.019836426
0.48339844,-1.0718384,-0.07745361
0.3557129,-0.850647,-0.044006348
0.3684082,-0.8284302,0.09100342
0.38793945,-0.831604,0.11102295
0.2668457,-0.8135376,0.12664795
0.21923828,-0.819397,0.17645264
0.30126953,-0.8225708,0.26434326
0.17480469,-0.9011841,0.27020264
0.25,-1.0601196,0.3859253
0.37426758,-1.1331177,0.24383545
0.28979492,-1.4685669,0.2999878
0.49023438,-0.8452759,-0.25982666
0.36450195,-0.8977661,-0.05328369
0.2998047,-0.8171997,-0.009094238
0.1796875,-0.8274536,0.04168701
0.21386719,-0.8147583,0.101989746
0.19873047,-0.83258057,0.13909912
0.13867188,-0.88482666,0.28997803
0.1706543,-0.8928833,0.26361084
0.033447266,-1.0374146,0.3361206
0.34936523,-1.2402954,0.34100342
