accelX,accelY,accelZ
0.9260254,-0.7437134,0.11248779
0.030029297,-0.7349243,-0.20391846
0.32299805,-0.80914307,-0.08331299
0.091796875,-0.63165283,-0.1260376
0.26171875,-1.048645,-0.065979004
0.19067383,-1.1755981,0.027526855
0.54907227,-1.3413696,-0.3184204
0.0029296875,-0.9795532,-0.41851807
0.084228516,-0.9788208,-0.38726807
0.13745117,-0.71343994,-0.13702393
-0.06958008,-0.53741455,-0.20855713
0.10083008,-0.9963989,-0.16290283
0.08666992,-1.2984009,-0.21734619
-0.07739258,-1.2466431,-0.5105591
0.6230469,-1.0747681,-0.12774658
0.2607422,-0.57891846,-0.21173096
0.06738281,-0.8718872,-0.13067627
0.18286133,-0.5510864,-0.14361572
0.18334961,-0.99176025,-0.1362915
0.2368164,-1.1694946,-0.047668457
0.4025879,-1.3858032,-0.28253174
0.14941406,-0.7666626,-0.4492798
0.06665039,-0.85894775,-0.36138916
0.08569336,-0.71759033,-0.21514893
-0.033447266,-0.56915283,-0.20587158
0.0769043,-1.1506958,-0.19976807
-0.051757812,-1.3230591,-0.2197876
0.39770508,-1.4973755,-0.40460205
0.21508789,-0.6729126,-0.15509033
0.13671875,-0.9277954,-0.009338379
0.1940918,-0.4932251,-0.08526611
0.12402344,-0.7214966,-0.12652588
0.2055664,-1.2195435,0.018005371
0.30737305,-1.180481,-0.24761963
0.0024414062,-1.2398071,-0.37628174
0.21679688,-0.7102661,-0.36968994
0.015625,-0.78741455,-0.14068604
0.045410156,-0.4397583,-0.19293213
0.049072266,-0.9126587,-0.15362549
0.04296875,-1.4387817,-0.27789307
-0.06933594,-1.3150024,-0.58135986
0.5336914,-1.2371216,-0.34576416
0.22387695,-0.50665283,-0.1482544
0.032958984,-0.864563,-0.16046143
0.16992188,-0.48101807,-0.10797119
0.08959961,-1.0125122,-0.07159424
0.1977539,-1.2930298,-0.054260254
0.3635254,-1.5498657,-0.2937622
0.06762695,-0.6399536,-0.4282837
0.03100586,-0.92633057,-0.24249268
0.1459961,-0.6914673,-0.11260986
0.15942383,-1.1577759,-0.0012817383
0.4255371,-1.4507446,-0.5335083
0.05908203,-0.99835205,-0.3706665
0.10546875,-0.8213501,-0.3423462
0.0107421875,-0.7678833,-0.14361572
0.016845703,-0.5352173,-0.1795044
0.01953125,-1.0505981,-0.20831299
0.2163086,-1.392395,-0.17022705
0.10205078,-1.3872681,-0.519104
0.31860352,-0.7149048,-0.20733643
0.17163086,-0.8140259,-0.09869385
0.12036133,-0.57476807,-0.16314697
0.16333008,-0.6848755,-0.13946533
0.1652832,-1.1638794,-0.08795166
0.19848633,-1.2444458,-0.19830322
0.23657227,-1.4793091,-0.32061768
0.05029297,-0.59820557,-0.37139893
0.06738281,-0.8740845,-0.17364502
-0.0024414062,-0.42022705,-0.18878174
0.06323242,-0.81134033,-0.18243408
-0.001953125,-1.4263306,-0.27301025
0.033691406,-1.279602,-0.5081177
0.7224121,-1.0894165,-0.17340088
0.1640625,-0.6626587,-0.1819458
0.11425781,-0.7866821,-0.19415283
0.14794922,-0.5630493,-0.0960083
0.14135742,-1.0039673,-0.11431885
0.18383789,-1.2161255,-0.0725708
0.24438477,-1.513977,-0.3328247
0.08129883,-0.6055298,-0.45684814
0.083740234,-0.96588135,-0.25323486
0.017822266,-0.5762329,-0.20196533
-0.025878906,-0.67022705,-0.20196533
0.08569336,-1.3377075,-0.24957275
-0.035888672,-1.2532349,-0.32037354
0.5917969,-1.2232056,-0.13214111
0.18261719,-0.76641846,-0.15118408
0.115478516,-0.83599854,-0.066223145
0.076171875,-0.5042114,-0.07525635
0.1706543,-0.9480591,0.018737793
0.16381836,-1.1948853,-0.07110596
0.2097168,-1.5581665,-0.3538208
0.07836914,-0.6514282,-0.31036377
-0.011474609,-0.88287354,-0.19659424
0.061279297,-0.5039673,-0.08917236
0.0021972656,-0.72784424,-0.15509033
0.028076172,-1.4851685,-0.25933838
-0.03564453,-1.2510376,-0.36798096
0.60546875,-1.1929321,-0.20147705
0.16967773,-0.60406494,-0.1663208
0.055664062,-0.8689575,-0.08013916
0.111083984,-0.5303345,-0.07745361
0.072753906,-0.98150635,-0.05230713
0.16064453,-1.2495728,0.028015137
0.30297852,-1.5840454,-0.28619385
0.0637207,-0.60284424,-0.37774658
0.07861328,-0.9036255,-0.19805908
0.024414062,-0.506897,-0.15484619
-0.09277344,-0.7102661,-0.15948486
0.0390625,-1.3789673,-0.2564087
-0.032470703,-1.3389282,-0.39068604
0.64990234,-1.2717896,-0.20196533
0.16723633,-0.6651001,-0.2390747
0.087402344,-0.77838135,-0.054748535
0.114990234,-0.48712158,-0.06011963
0.15966797,-0.8897095,-0.035705566
0.1730957,-1.2764282,0.012390137
0.37426758,-1.4868774,-0.25323486
0.064697266,-0.6223755,-0.28619385
0.012207031,-0.942688,-0.24298096
0.08203125,-0.58721924,-0.049865723
0.049072266,-0.68414307,-0.16900635
-0.0041503906,-1.05719,-0.1921997
0.020019531,-1.3743286,-0.1350708
0.27319336,-1.3633423,-0.3916626
0.15039062,-0.68536377,-0.10479736
0.23876953,-1.0132446,-0.019348145
0.15771484,-0.53009033,-0.10626221
0.10644531,-0.6819458,-0.061340332
0.15844727,-1.0083618,-0.0713501
0.17993164,-1.2966919,-0.22686768
0.18823242,-1.5059204,-0.43292236
0.091552734,-0.8491821,-0.29644775
0.020263672,-0.85284424,-0.15020752
-0.006591797,-0.4277954,-0.14117432
-0.03100586,-0.77789307,-0.19146729
-0.06640625,-1.461731,-0.20880127
-0.029296875,-1.3967896,-0.5322876
0.5979004,-1.09552,-0.06329346
0.14575195,-0.677063,-0.17218018
0.14355469,-0.7149048,-0.13116455
0.12133789,-0.51934814,-0.070617676
0.17773438,-0.97735596,-0.018371582
0.17749023,-1.3359985,0.012390137
0.29711914,-1.5249634,-0.37017822
0.08251953,-0.677063,-0.3982544
0.12866211,-0.87701416,-0.2822876
-0.030761719,-0.5733032,-0.19415283
-0.020019531,-0.68292236,-0.22003174
0.09643555,-1.2493286,-0.30377197
-0.011230469,-1.3076782,-0.43389893
0.5983887,-1.1660767,-0.19805908
0.2097168,-0.6548462,-0.1519165
0.12963867,-0.8718872,-0.097229004
0.14379883,-0.5618286,-0.10308838
0.13061523,-0.972229,-0.06964111
0.15429688,-1.2039185,0.10491943
0.35083008,-1.3845825,-0.26275635
0.1381836,-0.75128174,-0.4319458
-0.026123047,-0.85943604,-0.2617798
0.028564453,-0.67926025,-0.17120361
-0.051513672,-0.7461548,-0.24420166
0.037841797,-1.0654907,-0.16656494
-0.005126953,-1.2329712,-0.17315674
0.11669922,-1.3965454,-0.51446533
0.2368164,-0.80548096,-0.09283447
0.28735352,-0.7402954,-0.094055176
0.15332031,-0.6694946,-0.1819458
0.14404297,-0.663147,-0.07647705
0.17529297,-1.0025024,-0.10235596
0.18066406,-1.2944946,-0.302063
0.2199707,-1.3950806,-0.43804932
0.048828125,-0.67510986,-0.31378174
0.035888672,-0.8274536,-0.1951294
0.038330078,-0.56817627,-0.2156372
-0.010498047,-0.82354736,-0.18389893
-0.0126953125,-1.0930786,-0.19781494
-0.020263672,-1.3140259,-0.22833252
0.36083984,-1.4631958,-0.35723877
0.21264648,-0.663147,-0.12896729
0.20458984,-1.0269165,-0.06304932
0.15966797,-0.6433716,-0.08843994
0.060058594,-0.73101807,-0.120666504
0.16308594,-0.93878174,0.0067749023
0.13110352,-1.2510376,-0.015686035
0.26953125,-1.3613892,-0.2588501
0.13183594,-0.8960571,-0.5664673
0.122558594,-1.0408325,-0.3567505
0.032714844,-0.66900635,-0.10333252
-0.0703125,-0.4866333,-0.120666504
-0.017822266,-0.73883057,-0.11920166
-0.11669922,-0.9663696,-0.07696533
-0.12158203,-1.0960083,-0.059631348
-0.0063476562,-1.4263306,-0.23687744
0.29101562,-1.2695923,-0.1807251
0.31469727,-0.68927,-0.0115356445
0.08105469,-0.7971802,-0.062072754
0.12670898,-0.69732666,-0.012268066
0.115234375,-0.92852783,0.007751465
0.051757812,-1.0427856,0.08026123
0.099365234,-1.302063,0.10809326
0.32202148,-1.435852,-0.19781494
0.052734375,-0.8008423,-0.5442505
0.23022461,-0.95977783,-0.31085205
-0.03149414,-0.7490845,-0.23638916
0.007080078,-0.7346802,-0.25274658
-0.019042969,-0.769104,-0.16168213
-0.009765625,-1.1709595,-0.24542236
-0.12158203,-1.2637329,-0.29644775
0.65112305,-1.1585083,-0.15826416
0.15722656,-0.8152466,-0.12872314
0.0,-0.7822876,-0.06866455
0.11450195,-0.50177,-0.06817627
0.14355469,-0.8994751,-0.0791626
0.23120117,-1.3025513,0.02557373
0.29760742,-1.5325317,-0.37554932
0.14672852,-0.61968994,-0.42437744
0.05078125,-0.91851807,-0.32940674
0.0026855469,-0.6345825,-0.20098877
-0.02734375,-0.6416626,-0.25616455
0.04321289,-1.0745239,-0.29595947
0.07714844,-1.3452759,-0.26055908
0.2890625,-1.3862915,-0.4981079
0.15722656,-0.64923096,-0.11602783
0.10424805,-0.86968994,-0.07965088
0.21606445,-0.58477783,-0.070373535
0.08203125,-0.81451416,-0.07305908
0.20288086,-1.0845337,0.04534912
0.16015625,-1.2390747,-0.18243408
0.13256836,-1.2788696,-0.2876587
0.046875,-0.7234497,-0.37261963
0.07421875,-0.96417236,-0.19488525
-0.037597656,-0.5862427,-0.1675415
0.055419922,-0.73565674,-0.20440674
-0.0024414062,-1.0532837,-0.27423096
0.03173828,-1.3826294,-0.22735596
0.26391602,-1.4111938,-0.51641846
0.19946289,-0.78375244,-0.10870361
0.19677734,-0.9968872,-0.05645752
0.13305664,-0.5095825,-0.09527588
0.072509766,-0.62091064,-0.078186035
0.23583984,-1.083313,-0.054748535
0.18432617,-1.2798462,-0.22076416
0.15893555,-1.4421997,-0.36724854
0.10913086,-0.59454346,-0.3579712
-0.004638672,-0.91485596,-0.27764893
0.05908203,-0.6152954,-0.22076416
0.020507812,-0.89385986,-0.1873169
0.05029297,-1.2966919,-0.27423096
-0.15332031,-1.3919067,-0.6585083
0.51904297,-0.79034424,-0.13092041
0.15991211,-0.6902466,-0.14483643
0.1550293,-0.7686157,-0.10040283
0.13208008,-0.61724854,-0.13336182
0.17236328,-1.0022583,-0.07623291
0.17333984,-1.2000122,0.02508545
0.3972168,-1.4463501,-0.15875244
0.10058594,-0.706604,-0.41729736
0.052978516,-1.0237427,-0.27960205
0.045654297,-0.6470337,-0.11602783
-0.0078125,-0.585022,-0.14019775
0.0034179688,-0.973938,-0.16314697
0.041259766,-1.3518677,-0.21221924
0.24902344,-1.3606567,-0.51690674
0.20166016,-0.7214966,-0.15631104
0.23657227,-0.817688,-0.19586182
0.11254883,-0.6033325,-0.18902588
0.064697266,-0.6694946,-0.10479736
0.19482422,-1.1079712,-0.07720947
0.20410156,-1.2398071,-0.25665283
0.14038086,-1.298645,-0.41534424
-0.0061035156,-0.75445557,-0.42633057
0.12426758,-0.80181885,-0.23980713
0.018798828,-0.4360962,-0.21954346
0.030273438,-0.87091064,-0.17266846
0.013671875,-1.3196411,-0.39923096
0.041992188,-1.2774048,-0.62506104
0.6188965,-1.1748657,-0.30303955
0.24291992,-0.5828247,-0.17510986
0.076416016,-0.8460083,-0.21759033
0.21289062,-0.56256104,-0.13409424
0.16088867,-0.9866333,-0.13580322
0.23217773,-1.2144165,-0.1296997
0.37719727,-1.4673462,-0.4060669
0.057861328,-0.5549927,-0.51641846
0.10864258,-0.8982544,-0.35186768
0.023925781,-0.5935669,-0.26617432
-0.018554688,-0.63726807,-0.27716064
0.030273438,-1.2024536,-0.40899658
0.11621094,-1.2654419,-0.2774048
0.43847656,-1.333313,-0.6079712
0.14794922,-0.6812134,-0.25836182
0.2529297,-1.0032349,-0.09136963
0.15917969,-0.48321533,-0.10357666
0.1303711,-0.7432251,-0.10308838
0.19091797,-1.1199341,0.022888184
0.16333008,-1.2217407,-0.32452393
0.055419922,-1.359436,-0.32720947
0.15283203,-0.7371216,-0.2966919
-0.0029296875,-0.78082275,-0.16534424
-0.0053710938,-0.5545044,-0.206604
0.03173828,-0.866272,-0.20343018
0.02734375,-1.2002563,-0.27764893
0.036621094,-1.2622681,-0.33551025
0.62646484,-1.2505493,-0.24127197
0.2397461,-0.7300415,-0.23370361
0.14624023,-0.9390259,-0.08770752
0.17358398,-0.53375244,-0.05303955
0.10864258,-0.8377075,-0.020080566
0.21264648,-1.0462036,0.050476074
0.36669922,-1.4099731,-0.41656494
0.045654297,-0.7041626,-0.44903564
0.1496582,-0.89019775,-0.31744385
0.031982422,-0.64801025,-0.19366455
-0.017578125,-0.63116455,-0.21539307
0.032470703,-1.2122192,-0.3040161
0.05053711,-1.2556763,-0.33795166
0.55444336,-1.3723755,-0.43389893
0.0793457,-0.6519165,-0.2078247
0.18457031,-0.82110596,-0.117248535
0.16918945,-0.48931885,-0.11602783
0.13330078,-0.82891846,-0.16265869
0.27075195,-1.2542114,-0.20123291
0.2932129,-1.3181763,-0.5276489
0.13330078,-1.00177,-0.4578247
0.0056152344,-0.74298096,-0.31744385
0.026855469,-0.6987915,-0.2053833
0.020996094,-0.53082275,-0.17999268
0.0041503906,-1.223938,-0.3110962
0.068359375,-1.279602,-0.16192627
0.19677734,-1.3213501,-0.4829712
0.22265625,-0.7774048,-0.13214111
0.17651367,-0.7715454,-0.08306885
0.12988281,-0.48980713,-0.04449463
0.17016602,-0.848938,-0.10748291
0.23144531,-1.2229614,-0.054016113
0.31201172,-1.4802856,-0.3447876
0.04663086,-0.9212036,-0.49420166
0.1796875,-0.892395,-0.2432251
-0.03564453,-0.5918579,-0.1272583
0.027832031,-0.51812744,-0.28497314
0.044921875,-1.2520142,-0.2888794
-0.013183594,-1.3484497,-0.18292236
0.5620117,-1.4529419,-0.40948486
0.20605469,-0.73443604,-0.24468994
0.18457031,-0.8467407,-0.08843994
0.1821289,-0.5420532,-0.15386963
0.12817383,-0.7007446,-0.061340332
0.20483398,-1.1726685,-0.037902832
0.2553711,-1.3828735,-0.4644165
0.14355469,-1.0752563,-0.4212036
0.07519531,-0.9109497,-0.4204712
0.07714844,-0.7630005,-0.22271729
-0.020507812,-0.6069946,-0.23394775
0.016113281,-0.8904419,-0.14361572
0.09008789,-1.2991333,-0.30621338
0.064941406,-1.3394165,-0.47613525
0.34545898,-0.8970337,-0.29278564
0.3347168,-0.6392212,-0.09210205
0.01953125,-0.8076782,-0.15582275
0.1953125,-0.6087036,-0.0491333
0.15161133,-0.97320557,-0.13433838
0.19580078,-1.2669067,-0.21002197
0.41137695,-1.7073364,-0.6489868
-0.0009765625,-0.61016846,-0.44366455
0.107177734,-0.95513916,-0.32281494
0.032714844,-0.48565674,-0.18927002
0.020751953,-0.8543091,-0.24468994
0.038085938,-1.2996216,-0.4204712
-0.056884766,-1.2913208,-0.61138916
0.6821289,-1.0393677,-0.09942627
0.22314453,-0.5811157,-0.20318604
0.11694336,-0.8731079,-0.13043213
0.17822266,-0.583313,-0.10284424
0.19555664,-0.96295166,-0.09991455
0.16821289,-1.0459595,0.0004272461
0.46606445,-1.5737915,-0.23101807
0.1262207,-0.6309204,-0.42974854
0.080078125,-0.9624634,-0.26739502
