accelX,accelY,accelZ
-0.123535156,-1.0530396,0.19232178
-0.0031738281,-0.42242432,-0.082092285
0.020751953,-0.6917114,0.059265137
-0.16357422,-1.196106,0.32977295
-0.075927734,-1.3672485,0.074645996
-0.17919922,-1.2683716,0.11029053
-0.038330078,-0.70758057,-0.29986572
-0.09716797,-0.861145,-0.010314941
0.09350586,-0.77178955,0.0060424805
-0.07470703,-0.42803955,-0.0947876
-0.24072266,-1.2542114,-0.11846924
-0.1496582,-1.5161743,0.2423706
-0.45043945,-1.0952759,-0.17681885
0.38598633,-1.0684204,-0.12359619
-0.16699219,-0.6321411,-0.26885986
-0.111083984,-0.9590454,0.15863037
0.068359375,-0.38946533,-0.1404419
0.025146484,-0.69073486,0.0045776367
-0.3659668,-1.6555786,0.64959717
-0.29248047,-1.3748169,-0.2756958
0.024414062,-1.328186,-0.17779541
-0.08154297,-0.56036377,-0.16241455
-0.33935547,-0.80133057,-0.03643799
0.023925781,-0.880188,-0.02520752
-0.083984375,-0.489563,-0.1104126
-0.28027344,-1.0093384,0.004333496
-0.095947266,-1.1311646,0.15692139
-0.3947754,-1.4522095,0.043395996
-0.18041992,-1.2432251,-0.1531372
0.28686523,-0.7041626,-0.026916504
0.05859375,-0.92510986,-0.0115356445
-0.41674805,-0.8882446,0.1437378
-0.06762695,-0.675354,0.0065307617
0.0061035156,-0.9990845,0.32855225
-0.30297852,-0.8796997,0.09173584
-0.040527344,-1.0654907,0.18499756
-0.62719727,-1.538147,-0.043762207
-0.15063477,-0.67022705,-0.14312744
0.10620117,-1.1882935,-0.09088135
-0.22265625,-0.8303833,-0.023254395
-0.075927734,-0.704895,-0.047668457
-0.23071289,-1.3052368,0.00970459
-0.39111328,-1.3218384,0.008728027
0.28027344,-1.2493286,-0.394104
0.51953125,-0.87945557,0.20477295
-0.4597168,-1.0210571,-0.078430176
-0.057861328,-0.5425415,0.0072631836
-0.044677734,-0.4763794,0.040222168
0.02709961,-1.236145,0.15423584
-0.022460938,-1.3855591,0.061950684
-0.27661133,-1.359436,0.10076904
0.060791016,-0.70440674,-0.29351807
-0.10546875,-1.0076294,0.1317749
-0.119384766,-0.32476807,-0.14239502
-0.12426758,-0.39385986,-0.06329346
-0.114990234,-1.8984985,0.09075928
-0.2277832,-1.6004028,-0.11236572
0.27954102,-1.0615845,-0.33966064
0.20727539,-0.7251587,-0.10845947
-0.28857422,-0.90045166,0.14593506
-0.10595703,-0.6460571,0.022644043
0.02734375,-0.46832275,0.073913574
-0.024902344,-2.0,0.2609253
-0.41967773,-1.3255005,-0.18609619
-0.2121582,-0.89385986,-0.050842285
-0.12719727,-0.6253052,-0.19952393
0.10205078,-0.83843994,0.1762085
-0.21533203,-0.5689087,-0.04815674
-0.20751953,-0.83795166,0.014587402
-0.37426758,-1.5535278,0.19866943
-0.19238281,-1.4104614,-0.18243408
0.3930664,-1.0552368,0.14227295
-0.018798828,-0.74786377,-0.04547119
-0.19970703,-0.88946533,0.13641357
0.0007324219,-0.4644165,-0.03277588
0.024902344,-0.73394775,0.17327881
-0.2734375,-1.545227,0.6039429
-0.1887207,-1.5122681,0.08416748
-0.008544922,-0.91070557,-0.094055176
-0.2043457,-0.505188,-0.24737549
-0.20483398,-0.88238525,0.081970215
0.030273438,-0.58428955,-0.06939697
-0.32910156,-0.9006958,-0.08306885
-0.06274414,-1.6780396,0.08392334
-0.14624023,-1.3179321,-0.37652588
0.31860352,-1.0005493,0.027038574
-0.07006836,-0.94903564,-0.20367432
-0.12084961,-0.91973877,0.09466553
-0.1394043,-0.4727173,-0.06402588
0.05517578,-0.38433838,-0.0178833
-0.25708008,-1.9016724,0.0914917
-0.18652344,-1.3098755,-0.24127197
-0.048095703,-1.3518677,-0.03302002
-0.0041503906,-0.4907837,-0.3345337
-0.0087890625,-0.92755127,-0.04522705
-0.095947266,-0.86724854,0.05267334
-0.1081543,-0.5195923,-0.06964111
-0.2331543,-1.1170044,-0.07550049
-0.14208984,-1.4180298,0.12640381
-0.12231445,-1.362854,-0.11187744
0.4658203,-1.0015259,-0.027893066
0.03955078,-0.7000122,-0.1560669
-0.23120117,-1.1304321,0.053894043
0.024658203,-0.62335205,0.031921387
-0.05102539,-0.55548096,0.026062012
-0.24023438,-0.81329346,0.120788574
-0.2758789,-1.1370239,0.2538452
-0.2836914,-0.9932251,0.1984253
-0.375,-1.272522,-0.0064086914
-0.11669922,-1.0918579,-0.0134887695
-0.20092773,-0.8479614,-0.17559814
-0.14746094,-1.020813,0.15594482
-0.12109375,-0.5628052,-0.15020752
-0.2919922,-0.97491455,0.043151855
-0.29418945,-1.1306763,0.23773193
-0.38110352,-1.2007446,0.12713623
0.07128906,-1.1182251,-0.27178955
0.38989258,-0.8701782,0.21014404
-0.5266113,-1.3076782,0.026550293
-0.12524414,-0.6885376,0.08148193
0.115478516,-0.86187744,0.12249756
-0.09375,-1.1304321,0.26971436
-0.18164062,-1.0574341,0.20233154
0.15917969,-1.8052368,0.036071777
-0.30395508,-0.6399536,-0.37457275
-0.0390625,-0.7998657,-0.16998291
0.1303711,-1.0108032,0.17156982
-0.19262695,-0.46759033,-0.08917236
-0.21362305,-0.8670044,-0.11651611
-0.080078125,-1.8096313,0.19134521
-0.19506836,-1.2625122,-0.34454346
0.6279297,-0.89971924,0.08807373
-0.19165039,-0.7737427,-0.15020752
-0.17504883,-0.8809204,0.1071167
0.14379883,-0.4956665,-0.018371582
-0.08618164,-0.895813,0.101745605
-0.39672852,-1.4285278,0.38153076
-0.07788086,-1.2966919,-0.07623291
-0.107666016,-0.66729736,-0.30255127
-0.12646484,-0.92022705,0.06781006
-0.10644531,-0.78326416,0.17572021
-0.15161133,-0.45635986,-0.14654541
-0.29174805,-1.1921997,-0.0335083
-0.34423828,-1.7542114,0.29437256
-0.4621582,-0.86187744,-0.49517822
0.40673828,-0.83380127,0.20111084
-0.78881836,-1.0015259,-0.0005493164
-0.23413086,-1.0371704,0.124938965
0.22949219,-0.58673096,0.06951904
-0.32788086,-0.6314087,0.15008545
-0.23120117,-0.9390259,0.22332764
-0.096191406,-1.1201782,0.24993896
-0.57666016,-0.8845825,0.3024292
-0.48999023,-1.2109985,-0.041809082
0.037109375,-1.0730591,0.09954834
-0.11230469,-0.86846924,-0.13653564
-0.040039062,-1.003479,0.10467529
-0.025878906,-0.48321533,-0.036193848
-0.21704102,-0.9324341,0.15130615
-0.3137207,-1.0488892,0.15130615
-0.2536621,-1.3528442,0.31292725
-0.092285156,-1.284729,-0.16656494
0.35742188,-0.7107544,0.12445068
-0.33691406,-1.1294556,0.005554199
0.0087890625,-0.8501587,0.21453857
-0.036132812,-0.6758423,0.18450928
-0.01171875,-1.0913696,0.3764038
-0.35351562,-1.1358032,0.39031982
0.10180664,-1.6904907,0.15838623
-0.1706543,-0.72491455,-0.20465088
-0.068847656,-0.88165283,-0.22271729
0.072265625,-1.0686646,0.15032959
-0.18652344,-0.55914307,-0.09674072
0.08520508,-0.62042236,-0.08477783
-0.16577148,-1.2351685,0.03656006
-0.32421875,-1.3272095,-0.0049438477
0.24609375,-1.6851196,-0.1651001
0.40551758,-0.8550415,-0.050109863
0.00390625,-0.93218994,-0.28741455
-0.17016602,-0.8977661,0.13690186
-0.049316406,-0.36016846,-0.15948486
0.19262695,-0.753479,0.03314209
-0.17749023,-1.5720825,0.46575928
0.1184082,-1.4797974,-0.29718018
-0.21801758,-0.7920532,-0.33135986
0.005126953,-0.7786255,-0.050354004
-0.008056641,-0.8948364,0.07733154
0.009277344,-0.38409424,-0.19317627
0.005859375,-0.59381104,-0.017150879
-0.10058594,-1.6643677,0.11102295
0.111083984,-1.489563,-0.4192505
0.44262695,-0.9241333,-0.2510376
0.11621094,-0.8406372,-0.10772705
-0.29614258,-0.737854,0.11468506
0.043701172,-0.51812744,-0.06866455
0.26586914,-0.51275635,0.10882568
-0.024658203,-1.4382935,0.18890381
-0.21142578,-1.6404419,0.07879639
0.068359375,-1.3826294,-0.19537354
-0.041748047,-0.7017212,-0.082336426
-0.2565918,-0.6174927,-0.2420044
0.11035156,-0.7671509,0.11151123
-0.07324219,-0.38433838,-0.2156372
-0.072509766,-0.9639282,0.10101318
-0.36645508,-1.6126099,0.08514404
-0.35986328,-1.4107056,-0.17364502
0.56274414,-0.8945923,0.035339355
-0.049316406,-0.6538696,-0.21954346
-0.23120117,-0.90338135,0.18353271
0.014404297,-0.395813,-0.128479
0.0009765625,-0.56451416,0.04119873
-0.29418945,-1.6773071,0.76605225
0.12548828,-1.5420532,-0.14239502
-0.23852539,-0.8233032,-0.23492432
-0.020019531,-0.56695557,-0.15167236
0.03515625,-0.69317627,0.12225342
-0.13647461,-0.41363525,-0.17022705
-0.29516602,-0.8508911,0.0602417
-0.6101074,-1.7271118,0.3859253
-0.14648438,-1.3740845,-0.42681885
0.4958496,-0.9326782,0.1828003
-0.29833984,-0.6436157,-0.15899658
-0.2919922,-0.8569946,0.1605835
0.14941406,-0.27593994,-0.12896729
-0.0546875,-0.5552368,0.018005371
-0.48535156,-2.0,0.6090698
-0.3408203,-1.1936646,-0.36505127
-0.27294922,-0.84942627,-0.25787354
0.014160156,-0.630188,-0.1560669
-0.2709961,-1.1436157,-0.0044555664
-0.26464844,-0.6680298,-0.015930176
0.0234375,-0.46221924,-0.12896729
-0.1352539,-0.8796997,-0.07647705
-0.64086914,-1.3330688,0.26434326
-0.30517578,-1.2791138,-0.027160645
-0.28955078,-1.296936,-0.23687744
0.49853516,-0.87335205,-0.0803833
0.025634766,-0.8179321,-0.18341064
-0.080322266,-1.0298462,0.10418701
0.018310547,-0.5718384,-0.034484863
-0.017578125,-0.8945923,0.152771
-0.08496094,-1.0471802,0.21087646
-0.36572266,-1.5501099,0.2296753
0.19189453,-1.4866333,-0.28375244
0.06347656,-0.76446533,-0.44244385
-0.029785156,-1.0300903,-0.13555908
-0.051757812,-0.819397,-0.09698486
0.05126953,-0.55548096,-0.16143799
0.041992188,-1.2210083,-0.20489502
0.06225586,-1.5857544,-0.10308838
0.21508789,-0.99420166,-0.302063
0.14575195,-0.72613525,-0.10308838
0.018554688,-0.7727661,0.1329956
0.13378906,-0.62042236,-0.10089111
0.12792969,-0.3093872,-0.050598145
-0.08984375,-1.3772583,0.13372803
0.009277344,-1.2341919,-0.02154541
0.1274414,-1.5249634,0.08880615
-0.11645508,-0.74468994,-0.51153564
0.14477539,-0.84210205,0.082214355
-0.21801758,-0.8521118,-0.14630127
-0.0034179688,-0.5664673,-0.08355713
0.0029296875,-0.8916626,-0.18267822
-0.18896484,-1.2815552,-0.008361816
-0.27148438,-1.4546509,0.011657715
0.014160156,-1.430481,-0.1428833
0.36791992,-0.6638794,-0.43267822
0.32910156,-0.76348877,0.043151855
-0.10888672,-1.1257935,-0.022033691
0.057861328,-0.5610962,-0.16851807
0.140625,-0.14483643,0.012390137
-0.09326172,-0.8442993,0.20794678
-0.033691406,-1.0237427,0.28729248
-0.01928711,-1.1148071,0.31976318
-0.36035156,-1.3684692,-0.051086426
-0.1665039,-1.086731,-0.26593018
0.0075683594,-0.90948486,-0.26812744
-0.053222656,-0.85894775,0.2255249
0.025390625,-0.7005005,-0.14068604
-0.07714844,-1.1589966,0.042663574
-0.37719727,-1.2197876,-0.050598145
-0.07788086,-1.4905396,-0.25543213
0.7233887,-0.9607544,0.08514404
-0.17602539,-1.0220337,-0.094055176
-0.125,-0.56866455,0.034118652
0.02734375,-0.7005005,0.101257324
0.15649414,-0.8069458,0.13397217
-0.3046875,-1.3242798,0.5663452
-0.15234375,-1.4226685,-0.051574707
0.0068359375,-1.0530396,-0.024230957
-0.111572266,-0.6946411,-0.22515869
0.09350586,-0.7337036,-0.022521973
-0.083740234,-0.69317627,0.046813965
-0.2770996,-0.69854736,-0.20465088
-0.2944336,-1.5479126,0.00091552734
-0.22314453,-1.6401978,-0.18170166
0.29785156,-1.0264282,-0.23028564
0.42504883,-0.8040161,-0.09552002
-0.46484375,-0.8965454,0.137146
-0.14111328,-0.41851807,-0.10870361
0.22949219,-0.4915161,0.029968262
-0.14526367,-1.9539185,0.077819824
-0.17919922,-1.7815552,-0.27618408
-0.2446289,-0.7695923,-0.24053955
-0.017333984,-0.6970825,-0.23687744
0.07861328,-1.2036743,0.16156006
-0.20678711,-0.32965088,-0.23370361
-0.10571289,-0.4290161,-0.2078247
-0.31689453,-2.0,0.25604248
-0.1472168,-1.5222778,-0.611145
0.37817383,-0.7173462,0.050476074
-0.14355469,-1.0198364,-0.10675049
0.0126953125,-0.8335571,0.21624756
-0.008056641,-0.5166626,-0.10723877
-0.05493164,-0.44024658,-0.10650635
-0.17993164,-2.0,0.510437
0.020019531,-1.5015259,-0.29229736
-0.24560547,-0.7954712,-0.097961426
-0.24487305,-0.8196411,-0.18463135
0.13085938,-1.0046997,0.17132568
-0.19262695,-0.38653564,-0.01739502
-0.14208984,-0.5305786,-0.008850098
-0.47045898,-1.4959106,0.15985107
-0.40185547,-1.644104,0.3270874
0.037109375,-1.1714478,-0.20318604
0.16870117,-0.7617798,0.13543701
-0.059326172,-0.8809204,-0.10015869
-0.05419922,-0.767395,0.11248779
0.07446289,-0.5120239,-0.07476807
0.12133789,-1.0933228,0.10467529
-0.22705078,-1.4439087,0.4796753
0.18066406,-1.3328247,-0.17315674
-0.15332031,-0.87750244,-0.18267822
0.047851562,-0.62384033,-0.0725708
0.05126953,-0.89312744,0.1642456
-0.1484375,-0.6116333,-0.062805176
-0.040771484,-0.8953247,-0.019104004
-0.3708496,-1.447815,0.15765381
-0.13110352,-1.2903442,0.010192871
-0.43237305,-1.4966431,-0.36724854
0.22387695,-0.9456177,-0.20635986
0.017822266,-0.8735962,-0.08477783
-0.2109375,-0.7793579,0.026062012
0.17089844,-0.5095825,-0.029846191
-0.034179688,-0.5154419,-0.008605957
-0.36743164,-1.0056763,0.17425537
-0.118652344,-1.0300903,0.13983154
-0.2685547,-1.0952759,0.101745605
-0.50341797,-1.5479126,-0.028625488
0.068603516,-0.74176025,-0.20904541
0.015625,-1.0796509,-0.14971924
-0.32739258,-0.85943604,0.04144287
0.06298828,-0.6748657,-0.07281494
-0.115234375,-0.93170166,-0.016418457
-0.20996094,-1.3030396,0.086364746
-0.025634766,-1.5769653,-0.3303833
0.58032227,-1.006897,-0.05303955
0.20678711,-0.6956177,0.025817871
0.12451172,-1.2415161,0.023864746
0.12817383,-0.5425415,0.0006713867
0.05908203,-0.50860596,-0.09185791
-0.035888672,-1.2717896,0.13763428
0.13500977,-1.3936157,-0.08673096
0.053955078,-0.9656372,-0.14141846
0.019042969,-0.7420044,-0.3267212
0.057617188,-1.003479,-0.14019775
-0.16479492,-0.45269775,-0.17120361
0.044189453,-0.6235962,-0.20806885
-0.16113281,-1.5603638,-0.08868408
-0.26708984,-1.2571411,-0.26031494
0.31445312,-1.4978638,-0.3123169
0.20117188,-0.65289307,-0.14263916
-0.05419922,-0.69854736,-0.27496338
-0.029296875,-1.3362427,0.2892456
0.072021484,-0.49102783,-0.11236572
-0.09692383,-0.4048462,-0.024475098
-0.11645508,-1.2249146,0.31341553
-0.100097656,-1.1262817,-0.015930176
-0.15991211,-1.4529419,0.05291748
-0.08227539,-0.7542114,-0.11871338
