accelX,accelY,accelZ
0.32470703,-1.381897,-0.24395752
0.5917969,-0.8076782,-0.14996338
0.16577148,-1.0078735,-0.016662598
0.15405273,-0.8272095,-0.077697754
-0.08154297,-0.64508057,0.05267334
0.03564453,-0.5737915,0.034851074
0.11669922,-0.6838989,0.070495605
-0.05493164,-0.7966919,0.09588623
0.0126953125,-1.1443481,0.34295654
0.3876953,-1.4343872,-0.10699463
-0.50634766,-1.4417114,-0.12872314
0.32666016,-1.2766724,-0.52545166
0.03930664,-0.8538208,-0.0647583
0.03857422,-0.4570923,-0.13311768
-0.12915039,-0.6375122,0.06878662
0.11010742,-0.58135986,-0.1350708
-0.14990234,-1.4666138,0.22332764
-0.057373047,-0.95806885,0.07293701
-0.1628418,-1.7732544,-0.070129395
0.37841797,-0.8008423,-0.56134033
0.20336914,-1.039856,-0.17999268
-0.05859375,-0.673645,0.09637451
0.056152344,-0.6646118,0.026306152
-0.0017089844,-0.6279907,0.034362793
0.17651367,-0.7710571,0.27972412
-0.19335938,-1.083313,0.2855835
-0.14135742,-1.0603638,0.17376709
1.0305176,-1.4810181,-0.9854126
-0.22753906,-0.79815674,-0.35577393
0.20776367,-1.2310181,-0.013977051
0.008544922,-0.6663208,-0.070129395
0.05029297,-0.5095825,-0.0335083
0.07910156,-0.5588989,0.038513184
-0.17480469,-0.9187622,0.12689209
-0.1628418,-1.2295532,0.05218506
-0.10595703,-1.492981,-0.24298096
1.0537109,-1.0266724,-0.39263916
0.29956055,-1.0877075,-0.18682861
-0.06323242,-0.7774048,-0.04107666
0.07446289,-0.80963135,0.073913574
0.11621094,-0.7061157,0.11956787
0.05517578,-0.68218994,-0.0049438477
-0.061523438,-1.1641235,0.3065796
0.22314453,-1.256897,-0.097473145
-0.064453125,-1.3616333,-0.23223877
0.49951172,-1.0667114,-0.52008057
0.044921875,-0.99957275,-0.14385986
0.10961914,-0.6902466,-0.11553955
0.091796875,-0.48077393,-0.049621582
-0.068359375,-0.6397095,-0.03692627
0.13378906,-1.0811157,-0.20050049
-0.055664062,-1.3157349,0.09710693
1.029541,-1.6201782,-0.38555908
0.43579102,-0.7612915,-0.22003174
0.10595703,-0.8953247,-0.16314697
0.09448242,-0.7258911,-0.08795166
0.18603516,-0.54571533,-0.045715332
-0.026855469,-0.8237915,-0.066711426
0.12719727,-0.92852783,0.066589355
0.12817383,-1.1206665,0.12982178
0.50146484,-1.5193481,-0.30548096
0.16064453,-0.7461548,-0.50738525
0.004638672,-1.0864868,-0.2720337
0.02319336,-0.69000244,-0.047668457
0.068847656,-0.48858643,-0.112854004
0.020263672,-0.7698364,-0.09429932
0.13574219,-0.9976196,-0.069885254
0.044677734,-1.2490845,-0.01739502
0.4880371,-1.5813599,-0.015197754
0.2890625,-0.85943604,-0.41900635
0.11743164,-0.97784424,-0.19195557
0.12890625,-0.815979,-0.0491333
0.16894531,-0.5913696,-0.035461426
0.12939453,-0.6814575,-0.021057129
0.057861328,-0.9397583,-0.06768799
0.044677734,-1.0996704,-0.10308838
0.3022461,-1.3467407,-0.31573486
0.1496582,-1.0366821,-0.6309204
0.23754883,-1.1109009,-0.37628174
-0.07348633,-0.87384033,-0.10797119
0.08178711,-0.4932251,-0.093811035
0.08251953,-0.66729736,-0.09649658
0.09448242,-0.85821533,-0.15093994
0.095947266,-1.289856,-0.051818848
0.087646484,-1.7085571,-0.772522
0.015625,-0.9470825,-0.57037354
0.40527344,-0.96588135,-0.10699463
0.20532227,-0.65997314,-0.12506104
0.20385742,-0.47979736,-0.07281494
0.15429688,-0.74884033,0.08514404
0.110839844,-0.788147,-0.004699707
-0.048095703,-1.0632935,0.07733154
-0.018798828,-1.4324341,0.008728027
0.29589844,-1.5918579,-0.473938
0.46850586,-0.91485596,-0.52349854
0.04663086,-1.010315,-0.1675415
0.22607422,-0.65216064,-0.12432861
0.064453125,-0.35455322,-0.024963379
-0.13989258,-0.64508057,-0.030578613
0.045654297,-0.7942505,0.028015137
0.07470703,-1.3655396,0.11883545
-0.044921875,-1.4146118,-0.13092041
1.7426758,-1.3394165,-0.12017822
0.54711914,-1.0823364,-0.17803955
-0.14550781,-0.6741333,-0.10845947
0.18408203,-0.4505005,0.047058105
0.006591797,-0.7034302,0.059509277
-0.061035156,-0.88653564,0.2579956
-0.092285156,-1.1323853,0.29071045
-0.31835938,-0.9607544,0.051696777
0.091552734,-1.9678345,0.17034912
0.60961914,-1.3630981,-0.3118286
0.008544922,-0.8345337,0.038024902
0.24072266,-0.5161743,-0.016662598
-0.1081543,-0.5601196,0.027526855
-0.026123047,-0.8777466,0.06439209
-0.060302734,-1.3699341,0.28875732
-0.03149414,-1.5657349,-0.44683838
-0.11767578,-1.4890747,-0.5159302
0.8745117,-1.1782837,-0.144104
-0.17529297,-0.5635376,-0.08258057
0.057373047,-0.5100708,0.04827881
-0.0053710938,-0.7703247,0.18670654
0.07348633,-1.0679321,0.25872803
-0.09448242,-1.1167603,0.46600342
0.53686523,-2.0,-0.7061157
0.38720703,-0.9788208,-0.40338135
0.016845703,-0.99176025,-0.07574463
0.22875977,-0.6182251,0.026794434
-0.049560547,-0.4837036,-0.027648926
-0.10131836,-0.5527954,0.06488037
-0.11694336,-1.2730103,0.105163574
-0.17773438,-1.3963013,-0.00982666
1.999939,-1.3875122,-0.24615479
-0.15527344,-1.1709595,-0.22393799
0.008056641,-0.7918091,-0.070129395
0.11279297,-0.5462036,0.020690918
0.01928711,-0.6968384,0.14471436
0.020263672,-0.8831177,0.09197998
0.1262207,-1.2634888,0.18841553
0.5275879,-1.1567993,-0.41558838
0.46191406,-0.8609009,-0.54815674
-0.20532227,-1.180481,-0.5718384
0.09375,-0.9463501,-0.24884033
0.13452148,-0.75494385,-0.15826416
-0.046142578,-0.48638916,-0.08721924
0.12426758,-0.71881104,-0.21173096
0.010986328,-1.3682251,-0.17584229
0.7988281,-1.6133423,-0.09283447
0.54125977,-0.77178955,-0.37457275
0.055908203,-0.90289307,-0.22467041
0.18481445,-0.43170166,-0.04156494
0.017822266,-0.34259033,-0.09283447
0.025146484,-0.9512329,-0.04083252
0.037597656,-1.1265259,0.020935059
-0.03857422,-1.1504517,-0.06060791
-0.030273438,-1.739563,-0.68756104
0.3491211,-0.8870239,-0.40118408
-0.061523438,-1.0293579,-0.24884033
-0.0063476562,-0.6851196,-0.11114502
-0.07861328,-0.4837036,-0.13726807
-0.011962891,-0.7012329,-0.09698486
0.13647461,-1.2136841,-0.17755127
-0.21923828,-1.342102,-0.20269775
0.763916,-0.90997314,-0.35357666
0.2878418,-0.99713135,-0.07550049
0.048339844,-0.80718994,-0.16998291
0.17089844,-0.5960083,0.04510498
0.13549805,-0.5083618,-0.016906738
0.0703125,-0.6741333,0.024841309
-0.0107421875,-1.0379028,0.055847168
-0.029541016,-1.4124146,0.043640137
0.54296875,-1.8560181,-0.82696533
0.5732422,-1.0325317,-0.47320557
-0.07543945,-0.81573486,-0.2930298
0.1105957,-0.79766846,-0.16705322
0.20288086,-0.31500244,-0.08135986
-0.20385742,-0.54278564,-0.08013916
0.040527344,-0.71759033,0.09075928
-0.03466797,-1.3335571,0.20404053
0.01928711,-1.3789673,0.19036865
1.2197266,-0.9221802,-0.058654785
0.07519531,-1.1055298,-0.222229
-0.060302734,-0.8086548,-0.042785645
0.103027344,-0.59698486,0.02532959
0.07788086,-0.6487427,0.0048217773
0.123046875,-0.72979736,0.16668701
-0.02709961,-1.0740356,0.18988037
0.03149414,-1.2051392,-0.03302002
0.1743164,-2.0,-0.3694458
0.5510254,-1.3345337,-0.5679321
0.0007324219,-0.81427,-0.12286377
0.22753906,-0.47735596,-0.00030517578
-0.028076172,-0.35968018,-0.049865723
-0.034179688,-0.74224854,0.06707764
-0.38208008,-1.3359985,0.23797607
-0.020263672,-1.1882935,-0.60479736
1.1643066,-1.4749146,-0.29888916
0.765625,-1.3565063,-0.190979
-0.036376953,-0.6602173,-0.043029785
0.020751953,-0.4277954,0.017028809
0.051757812,-0.60894775,0.16156006
0.0859375,-1.1260376,0.14056396
0.14086914,-1.1345825,0.11517334
0.8479004,-1.444397,-0.7671509
0.6723633,-0.7815552,-0.7058716
-0.16113281,-0.93218994,-0.583313
0.119384766,-0.9612427,-0.28790283
0.040039062,-0.70758057,-0.13189697
0.005859375,-0.5425415,-0.105041504
0.0126953125,-0.6658325,-0.16119385
-0.0031738281,-1.546936,-0.13897705
0.07470703,-1.395813,-0.16070557
0.41601562,-0.76690674,-0.47442627
0.23217773,-0.9168091,-0.03302002
0.31079102,-0.63775635,-0.14801025
0.14648438,-0.55548096,-0.06793213
0.12866211,-0.79644775,-0.0076293945
0.022460938,-0.9678345,0.031677246
0.048828125,-1.1819458,0.03338623
0.4416504,-1.7844849,-0.24884033
0.2841797,-0.80548096,-0.29718018
0.06958008,-0.9956665,-0.24542236
0.026855469,-0.7527466,-0.121154785
0.010253906,-0.56378174,-0.13458252
0.05883789,-0.72613525,-0.09869385
0.06982422,-0.77911377,-0.08135986
0.056884766,-1.1121216,-0.05328369
-0.2536621,-1.4695435,-0.19537354
0.6479492,-0.9907837,-0.78692627
0.5090332,-0.9248657,-0.14483643
0.20141602,-0.9331665,-0.24005127
0.07739258,-0.59503174,-0.159729
0.018066406,-0.5100708,-0.003967285
0.07080078,-0.6555786,0.004333496
0.18408203,-0.86602783,0.23919678
0.0126953125,-1.2525024,-0.055236816
0.9953613,-1.3013306,-0.835022
-0.034423828,-0.55670166,-0.29693604
0.111572266,-1.279602,-0.3435669
0.061035156,-0.57232666,-0.113098145
0.0014648438,-0.42559814,-0.022766113
-0.1159668,-0.5557251,-0.19781494
0.022216797,-0.88360596,-0.003479004
-0.14013672,-1.5654907,0.15008545
-0.16455078,-1.4255981,-0.6001587
1.1230469,-0.8699341,-0.42193604
0.51049805,-1.1541138,-0.09649658
-0.02368164,-0.7210083,-0.14898682
0.1274414,-0.5462036,0.0014038086
0.19116211,-0.60894775,0.11199951
0.09887695,-0.9492798,0.21673584
-0.25097656,-1.2056274,0.1473999
0.9946289,-1.5806274,-1.1138306
0.26049805,-0.8880005,-0.34698486
-0.095947266,-0.98883057,-0.3604126
0.27172852,-0.7564087,-0.1326294
-0.0048828125,-0.60284424,-0.027648926
-0.20581055,-0.42803955,-0.06060791
0.36157227,-0.93634033,-0.04034424
-0.19482422,-1.612854,0.06854248
0.52734375,-1.3008423,-0.66412354
0.5046387,-1.0266724,-0.35211182
0.26293945,-1.0061646,-0.11920166
0.001953125,-0.6819458,-0.038146973
0.09643555,-0.29742432,0.00091552734
0.020996094,-0.50982666,-0.003479004
-0.024902344,-0.9456177,0.16326904
-0.09326172,-1.2800903,0.28851318
0.80322266,-1.4788208,-0.8911743
0.26831055,-0.81500244,-0.30548096
-0.001953125,-1.0820923,-0.24468994
0.05810547,-0.49835205,0.031188965
0.009521484,-0.3274536,-0.09454346
-0.03515625,-0.66607666,0.01727295
-0.09741211,-1.3203735,0.039245605
-0.13183594,-1.380188,0.13079834
1.8798828,-1.2371216,0.29510498
-0.115722656,-1.1536255,-0.39337158
0.08276367,-0.862854,-0.13800049
0.15576172,-0.43463135,-0.062316895
-0.03857422,-0.66290283,-0.015197754
0.13354492,-0.802063,0.12615967
0.35913086,-1.3684692,0.06317139
0.52001953,-1.0120239,-0.46270752
0.64501953,-1.232727,-1.1516724
0.1665039,-1.0073853,-0.5352173
0.084228516,-0.9937134,-0.21148682
0.06518555,-0.6326294,-0.105041504
0.12402344,-0.44317627,-0.16973877
0.10253906,-0.6980591,-0.17364502
0.14868164,-1.3726196,-0.024475098
0.053466797,-1.3010864,-0.4841919
0.15405273,-0.92144775,-0.43511963
0.19995117,-0.9751587,-0.14385986
0.20141602,-0.6592407,-0.11138916
0.16479492,-0.5005493,-0.07720947
0.061767578,-0.73101807,-0.021057129
0.21313477,-1.3001099,0.043395996
0.12182617,-1.3560181,-0.057678223
0.8132324,-1.8587036,-0.34381104
0.33935547,-0.58062744,-0.2666626
-0.08496094,-0.94537354,-0.19854736
0.07006836,-0.71759033,-0.03302002
0.0041503906,-0.50787354,-0.062316895
0.046875,-0.69732666,-0.026672363
0.013671875,-1.116272,-0.00079345703
0.012451172,-1.6118774,-0.035949707
0.5270996,-0.9729614,-0.4336548
0.23168945,-0.7749634,-0.27105713
0.057861328,-0.94366455,-0.043029785
0.103759766,-0.67926025,-0.10455322
0.23730469,-0.57525635,0.015808105
0.006591797,-0.6716919,0.021911621
-0.09863281,-0.9212036,0.17474365
-0.080566406,-1.1358032,0.29632568
-0.0793457,-2.0,-0.66363525
0.66918945,-0.7749634,-0.49273682
-0.013671875,-1.1629028,-0.101379395
0.06567383,-0.75982666,-0.062072754
0.022216797,-0.628479,-0.042785645
0.06958008,-0.61383057,-0.061828613
0.14624023,-0.78131104,0.047058105
-0.055908203,-1.3960571,-0.105041504
1.4855957,-1.0791626,-0.2571411
0.25830078,-1.3189087,-0.2727661
0.03125,-0.88287354,-0.1765747
0.16894531,-0.5125122,-0.009338379
0.19555664,-0.7161255,0.13372803
0.048339844,-0.8274536,-0.13092041
-0.007080078,-1.37677,-0.057434082
0.52685547,-1.9453735,-0.31744385
0.43139648,-0.8496704,-0.5064087
0.1262207,-1.0183716,-0.19073486
0.032714844,-0.6814575,-0.18365479
0.0390625,-0.3743286,-0.10992432
-0.23852539,-0.71954346,-0.2810669
0.23828125,-0.9295044,-0.18414307
0.12548828,-1.3008423,-0.11798096
0.45117188,-1.5925903,-0.47052002
0.53344727,-0.7835083,-0.48712158
0.34521484,-0.89971924,-0.24102783
0.040283203,-0.72198486,-0.14630127
0.14135742,-0.62457275,-0.059387207
0.0,-0.70513916,0.02166748
0.1665039,-0.8735962,0.006286621
0.072509766,-1.031311,0.015075684
0.14770508,-1.279602,0.026550293
0.2854004,-1.0366821,-0.30108643
0.114746094,-1.0891724,-0.44561768
0.028808594,-1.000061,-0.06085205
-0.013427734,-0.5437622,-0.10308838
-0.08105469,-0.63409424,-0.120910645
-0.08154297,-0.6929321,-0.10406494
0.13476562,-0.79937744,-0.023254395
-0.12573242,-1.5574341,0.055847168
-0.2783203,-1.6895142,-0.5454712
0.5288086,-0.82281494,-0.678772
0.21582031,-0.87945557,-0.08477783
0.110839844,-0.8189087,-0.1609497
0.16894531,-0.7366333,0.015808105
0.045410156,-0.55718994,0.030944824
0.07910156,-0.42681885,0.10687256
0.107177734,-0.97613525,0.30560303
-0.10961914,-1.241272,0.24456787
0.5786133,-1.6980591,-0.5442505
0.4621582,-0.8982544,-0.4553833
-0.36816406,-1.0977173,-0.27252197
0.17358398,-0.6165161,-0.065979004
0.1706543,-0.47540283,-0.25250244
-0.16357422,-0.7444458,-0.039855957
-0.1394043,-0.90997314,0.25701904
0.29858398,-2.0,0.08270264
0.37182617,-1.4055786,0.0016479492
0.53686523,-1.1677856,-0.39923096
0.32714844,-0.86309814,-0.33087158
0.33862305,-0.77301025,-0.0869751
0.1616211,-0.6309204,0.027526855
0.104003906,-0.22247314,-0.08477783
0.16772461,-0.7058716,-0.09283447
