accelX,accelY,accelZ
-0.24853516,-0.9885864,0.12640381
-0.3083496,-1.1480103,0.05999756
-0.11621094,-1.3870239,-0.04058838
-0.045654297,-1.12677,-0.030822754
0.09790039,-0.6980591,0.021911621
-0.06616211,-1.1091919,0.13348389
-0.060546875,-0.647522,0.0368042
-0.01928711,-0.8526001,-0.02154541
-0.052978516,-0.96588135,0.16229248
-0.05029297,-0.84576416,0.08758545
-0.05810547,-1.0117798,0.121032715
-0.16430664,-1.1016235,0.15789795
-0.068847656,-1.1326294,-0.011047363
-0.13330078,-1.6470337,0.03289795
-0.22729492,-0.59503174,-0.29986572
0.096191406,-1.0391235,0.006286621
-0.3881836,-0.87628174,-0.049621582
-0.12426758,-0.69073486,-0.04937744
-0.13305664,-0.8464966,-0.042785645
-0.21264648,-0.93292236,0.0038452148
-0.31225586,-1.0100708,0.078063965
-0.22705078,-1.149231,0.074401855
-0.17578125,-1.6802368,0.0021362305
0.057617188,-0.97491455,0.13690186
0.21948242,-0.6543579,0.018249512
-0.27661133,-1.1443481,0.13690186
-0.107666016,-0.49273682,0.04949951
0.08105469,-0.77838135,0.11468506
-0.16381836,-1.1226196,0.17596436
-0.07299805,-0.80670166,0.12225342
-0.095458984,-1.0496216,0.2333374
-0.2277832,-1.0357056,0.14300537
0.017822266,-1.3743286,0.1708374
-0.19262695,-1.3677368,-0.04888916
-0.0043945312,-0.67852783,-0.23077393
-0.072753906,-1.020813,0.024841309
-0.17675781,-0.7803345,-0.039611816
-0.1328125,-0.6914673,-0.11138916
-0.16845703,-0.940979,-0.082336426
-0.079833984,-0.95147705,0.002380371
-0.3269043,-0.9963989,-0.066223145
-0.17285156,-1.0808716,0.008483887
-0.080078125,-1.1333618,-0.020812988
-0.16723633,-1.4026489,-0.13360596
0.14672852,-1.1157837,-0.097473145
0.0637207,-0.88775635,-0.02178955
-0.06713867,-0.94244385,0.034851074
-0.005126953,-0.63409424,-0.0044555664
0.06274414,-0.85650635,0.10638428
-0.103271484,-0.8862915,0.0692749
-0.072753906,-0.97320557,0.1293335
-0.045898438,-0.9920044,0.1852417
-0.17529297,-1.0376587,0.12835693
-0.1496582,-1.1638794,0.036315918
-0.061035156,-1.5935669,0.19720459
-0.3112793,-0.9336548,-0.097473145
0.2163086,-0.8093872,-0.101623535
-0.18383789,-0.9048462,0.028015137
-0.27807617,-0.9661255,-0.0044555664
-0.10546875,-0.9421997,0.06829834
-0.33447266,-0.92144775,0.02508545
-0.10546875,-0.7490845,0.012390137
-0.27124023,-1.0567017,0.0048217773
-0.21679688,-1.1448364,0.12908936
-0.19946289,-1.0857544,-0.054504395
-0.053466797,-1.6502075,0.1383667
0.07739258,-0.6033325,-0.109436035
0.04711914,-1.0586548,0.1473999
-0.25634766,-0.85601807,0.034118652
0.013427734,-0.8418579,0.105651855
-0.107666016,-0.94000244,0.08709717
-0.10229492,-0.7288208,0.090026855
-0.041992188,-0.9170532,0.1449585
-0.11352539,-1.0518188,0.16156006
-0.2680664,-1.1836548,0.109802246
0.064208984,-1.3442993,0.10247803
-0.19726562,-1.2422485,-0.09893799
-0.11425781,-0.6436157,-0.315979
0.061035156,-1.2156372,0.094177246
-0.4128418,-0.66070557,-0.12628174
-0.021972656,-0.786438,0.0028686523
-0.21948242,-0.92144775,-0.010070801
-0.22558594,-0.9024048,0.015075684
-0.26123047,-1.0022583,0.06536865
-0.27661133,-1.1245728,0.08026123
-0.13549805,-1.2954712,-0.09283447
0.20825195,-1.2595825,0.34979248
-0.016845703,-0.62213135,-0.031066895
-0.122558594,-1.2285767,0.19573975
-0.016845703,-0.7959595,0.08929443
-0.034179688,-0.7180786,0.14129639
-0.16845703,-0.83135986,0.12054443
0.045898438,-0.94903564,0.19818115
-0.060791016,-0.9729614,0.17816162
-0.11767578,-0.9241333,0.14422607
-0.16552734,-1.130188,0.20355225
-0.052734375,-1.145813,0.05731201
-0.18334961,-1.4568481,0.10003662
-0.13330078,-0.8557739,-0.10626221
0.06201172,-0.9968872,0.016052246
-0.24243164,-0.8657837,0.014099121
-0.10839844,-0.74053955,-0.019836426
-0.11401367,-0.84454346,-0.050598145
-0.13867188,-0.9229126,-0.058654785
-0.25634766,-0.986145,-0.03741455
-0.20532227,-1.0994263,-0.022766113
-0.1586914,-1.1101685,-0.09576416
0.033203125,-1.5603638,-0.03326416
0.10595703,-0.8814087,-0.09942627
0.076416016,-0.96710205,0.018737793
-0.122802734,-0.8831177,0.016052246
0.024658203,-0.6682739,0.015319824
0.028564453,-0.85943604,0.039733887
-0.14379883,-0.96661377,0.06732178
-0.039794922,-0.9241333,0.109558105
-0.032714844,-0.96343994,0.16131592
-0.2084961,-1.0220337,0.112976074
-0.07397461,-1.1956177,0.07733154
-0.2097168,-1.4961548,0.06341553
-0.13134766,-0.91412354,-0.14361572
0.018798828,-0.9260864,-0.044006348
-0.18725586,-0.9793091,0.07147217
-0.1706543,-0.6902466,-0.038391113
-0.13574219,-0.8008423,-0.02154541
-0.16357422,-0.92315674,-0.0064086914
-0.17382812,-0.93878174,0.0045776367
-0.24658203,-0.9631958,0.030456543
-0.21972656,-1.1069946,0.06781006
-0.18408203,-1.3323364,0.05706787
0.095947266,-1.4485474,0.13446045
0.036865234,-0.8098755,-0.028137207
0.1081543,-0.973938,0.06732178
-0.064208984,-0.91534424,0.062683105
0.020507812,-0.66290283,0.07659912
-0.07739258,-0.7276001,0.020202637
-0.009033203,-1.053772,0.12445068
-0.06274414,-0.99346924,0.10101318
-0.0021972656,-1.0217896,0.1515503
-0.19970703,-1.083313,0.09442139
0.12426758,-1.3840942,0.09588623
-0.13769531,-1.3552856,-0.051330566
-0.07495117,-0.64141846,-0.24932861
0.15551758,-1.1724243,0.062194824
-0.24487305,-0.6577759,-0.028381348
-0.0703125,-0.6831665,-0.046691895
-0.12963867,-0.9927368,-0.0025024414
-0.17089844,-0.96221924,0.018737793
-0.2668457,-0.9807739,0.066345215
-0.13085938,-1.1914673,0.03729248
-0.22387695,-1.315979,-0.02545166
0.23217773,-1.2422485,0.24261475
-0.0078125,-0.7788696,-0.11065674
-0.1381836,-1.1079712,0.15740967
0.028808594,-0.69073486,0.05291748
0.072021484,-0.6838989,0.109802246
-0.2121582,-0.94976807,0.08514404
0.06665039,-0.96832275,0.19036865
-0.07373047,-0.93927,0.1329956
-0.10546875,-1.0310669,0.14984131
-0.080322266,-1.156311,0.078552246
-0.040039062,-1.6099243,0.22137451
-0.20117188,-1.0496216,-0.08258057
0.08081055,-0.8279419,-0.12774658
-0.10180664,-0.89385986,-0.007385254
-0.16992188,-0.7373657,-0.0713501
-0.0012207031,-0.74713135,-0.057922363
-0.23803711,-1.0440063,-0.06378174
-0.12768555,-0.9639282,-0.0413208
-0.23291016,-0.9883423,-0.03375244
-0.18676758,-1.1548462,0.018493652
-0.15332031,-1.194397,-0.058898926
0.13305664,-1.5476685,0.14691162
0.09399414,-0.6782837,-0.050598145
0.020996094,-1.1045532,0.11541748
-0.038085938,-0.7620239,0.0014038086
0.09838867,-0.756897,0.061706543
-0.099853516,-0.89508057,0.051940918
-0.021484375,-0.82818604,0.049743652
-0.037597656,-0.98931885,0.07537842
-0.046875,-0.93878174,0.07879639
-0.13964844,-1.15094,0.10760498
-0.09643555,-1.1482544,-0.022521973
-0.030761719,-1.545227,0.07196045
-0.111328125,-0.92437744,-0.22515869
0.016601562,-0.944397,-0.12213135
-0.19116211,-0.93634033,-0.03741455
-0.1484375,-0.68585205,-0.13653564
-0.055664062,-0.80133057,-0.016418457
-0.17675781,-0.96539307,-0.030090332
-0.20922852,-0.9212036,-0.046691895
-0.19702148,-0.9927368,0.02142334
-0.16699219,-0.94195557,0.09979248
-0.20605469,-1.1968384,0.0770874
-0.0073242188,-1.2420044,0.101745605
0.22851562,-0.6592407,-0.04547119
0.12231445,-1.1443481,0.120788574
0.107421875,-0.7180786,-0.015686035
0.1977539,-0.81573486,0.14447021
-0.033691406,-0.8167114,0.051696777
0.14550781,-0.9168091,0.11663818
0.15332031,-0.95880127,0.18206787
-0.020019531,-1.085022,0.19989014
0.040039062,-1.1223755,0.06536865
0.09765625,-1.427063,0.10272217
0.07373047,-1.2312622,0.08929443
0.09790039,-0.65826416,-0.07159424
0.049072266,-0.9500122,0.09564209
-0.12939453,-0.7769165,-0.018859863
0.05859375,-0.75372314,0.04559326
-0.028320312,-0.95098877,0.03363037
0.0234375,-0.99468994,0.031921387
-0.018798828,-1.0100708,0.04852295
-0.052490234,-1.036438,0.04852295
-0.0053710938,-1.2637329,0.015075684
0.2590332,-1.2661743,0.08319092
0.22607422,-0.96881104,-0.006164551
0.2722168,-0.925354,0.07318115
-0.008300781,-1.0271606,0.08856201
0.123291016,-0.7373657,0.0848999
0.017333984,-0.7468872,0.02532959
0.083496094,-0.7776489,0.054870605
0.11987305,-1.0715942,0.105895996
0.10253906,-1.0064087,0.124694824
0.06323242,-1.1687622,0.047546387
0.33642578,-1.4522095,0.11663818
-0.010253906,-1.0252075,-0.17803955
0.16772461,-0.8093872,-0.105285645
0.052490234,-0.9741821,0.043395996
-0.07714844,-0.769104,0.004333496
-0.035888672,-0.7161255,0.016052246
0.0107421875,-0.97979736,0.06341553
-0.045166016,-0.9649048,0.07293701
-0.076416016,-1.0715942,0.09588623
0.035888672,-1.2012329,-0.006652832
0.47070312,-1.6968384,0.18695068
0.12524414,-0.6921997,-0.058898926
0.14038086,-1.0559692,0.19451904
0.12963867,-0.7918091,0.09320068
0.12231445,-0.7732544,0.13909912
0.020263672,-0.8167114,0.10003662
0.08129883,-0.82232666,0.15789795
0.15332031,-0.94903564,0.21478271
0.061035156,-1.0691528,0.18182373
0.0859375,-1.2285767,0.10687256
0.18725586,-1.4209595,0.116882324
-0.067871094,-0.9102173,-0.1519165
0.27246094,-0.9758911,-0.06451416
-0.08105469,-0.9898071,-0.032287598
0.03857422,-0.6799927,-0.069885254
-0.0043945312,-0.75909424,-0.0635376
-0.037353516,-0.97613525,-0.074035645
0.04711914,-1.0283813,0.0006713867
-0.083984375,-1.0205688,-0.031555176
0.08251953,-1.211731,-0.044006348
0.27807617,-1.3760376,-0.019592285
0.4086914,-0.92559814,0.0446167
0.08520508,-0.88238525,0.0289917
0.19799805,-0.9976196,0.11102295
0.15014648,-0.7127075,0.10467529
0.075927734,-0.80548096,0.105651855
0.06347656,-0.8027954,0.116882324
0.20874023,-0.9492798,0.1828003
0.053466797,-0.94854736,0.18084717
0.10522461,-1.1558228,0.18182373
0.22680664,-1.3076782,0.11956787
0.029296875,-1.3565063,-0.0029907227
0.13671875,-0.75860596,-0.15875244
0.18774414,-0.9234009,0.030700684
-0.2211914,-0.7732544,-0.074279785
0.12475586,-0.67926025,-0.018859863
-0.021484375,-1.0249634,0.009216309
0.018554688,-0.94488525,0.019470215
-0.0063476562,-0.99468994,0.031433105
-0.032470703,-1.0835571,-0.0037231445
-0.017333984,-1.2415161,-0.040100098
0.3017578,-1.2825317,-0.014221191
0.234375,-1.0276489,-0.050354004
0.16967773,-0.7732544,-0.034973145
0.1899414,-1.1118774,0.10394287
0.11694336,-0.77056885,0.0138549805
0.19702148,-0.86016846,0.11859131
-0.041992188,-0.73809814,0.07366943
0.1303711,-0.8579712,0.13885498
0.13598633,-1.1113892,0.17938232
0.10839844,-0.9907837,0.23675537
0.040039062,-1.117981,0.074157715
0.23291016,-1.4190063,0.2567749
-0.16894531,-1.0388794,-0.07891846
0.30908203,-0.9351196,-0.085998535
0.0234375,-0.8206177,0.077819824
-0.123535156,-0.89923096,0.00579834
0.10424805,-0.75445557,0.08856201
0.009521484,-0.81378174,0.023376465
-0.114990234,-1.1033325,0.05706787
-0.015380859,-0.8982544,0.09954834
-0.11987305,-1.1455688,0.12298584
-0.0007324219,-1.1296997,0.061706543
0.20166016,-1.5523071,0.12542725
0.20288086,-0.99053955,-0.05328369
0.11035156,-0.803772,0.02508545
0.27783203,-1.0725708,0.14471436
0.008544922,-0.7407837,0.028015137
0.13354492,-0.7300415,0.121520996
0.06958008,-0.7805786,0.06463623
0.12597656,-0.94195557,0.12322998
0.122802734,-1.005188,0.14105225
0.035888672,-1.1358032,0.15252686
0.1003418,-1.3897095,-0.007873535
0.111083984,-1.3848267,-0.066223145
-0.027832031,-0.7456665,-0.16827393
0.20092773,-1.0986938,0.0119018555
-0.111328125,-0.81378174,-0.0017700195
0.048095703,-0.6917114,-0.0020141602
-0.04296875,-0.7178345,-0.018127441
-0.0769043,-0.9939575,0.0053100586
-0.055908203,-1.1731567,-0.009094238
-0.01977539,-1.2317505,0.09637451
0.03100586,-1.2449341,-0.008850098
0.38305664,-1.1599731,0.17645264
0.114746094,-0.6958618,-0.12750244
0.14697266,-1.2947388,0.18572998
0.067871094,-0.55010986,0.03289795
0.07788086,-0.56085205,0.014587402
0.091552734,-0.973938,0.059753418
0.12133789,-1.0962524,0.15789795
0.049316406,-0.9446411,0.11590576
0.0390625,-0.93878174,0.08905029
0.09350586,-1.2798462,-0.0010375977
0.25830078,-1.5440063,0.06097412
-0.06616211,-0.9221802,-0.17779541
0.2019043,-0.9768677,-0.124572754
0.01977539,-0.8435669,0.02166748
-0.02758789,-0.6519165,-0.06719971
-0.0034179688,-0.7647095,-0.06744385
0.014404297,-1.0908813,0.027770996
-0.0075683594,-0.95806885,0.019470215
-0.043701172,-1.0689087,0.054870605
0.07055664,-1.0547485,0.039733887
0.18896484,-1.3782349,-0.047668457
0.265625,-1.045227,0.08709717
0.18164062,-0.83917236,0.019958496
0.18457031,-1.0269165,0.14300537
0.10986328,-0.7124634,0.03729248
0.22021484,-0.79278564,0.14813232
0.01586914,-0.7085571,0.031921387
0.16601562,-0.96832275,0.13079834
0.18017578,-1.0278931,0.11517334
0.07714844,-1.0061646,0.12176514
0.12670898,-1.1946411,0.07904053
0.20678711,-1.444397,0.09173584
-0.022216797,-1.0037231,-0.20367432
0.1899414,-0.9656372,-0.1038208
0.10644531,-0.8689575,-0.030822754
0.0073242188,-0.7319946,-0.11871338
0.010498047,-0.7571411,-0.10723877
0.07055664,-0.97540283,-0.06402588
0.041015625,-0.9961548,-0.04888916
-0.025390625,-0.972229,0.007019043
0.03857422,-1.1082153,0.0014038086
0.11621094,-1.2693481,-0.061340332
0.35351562,-1.4776001,0.18450928
0.25830078,-0.7463989,-0.012268066
0.2421875,-1.0354614,0.1149292
0.12182617,-0.7866821,0.06585693
0.16235352,-0.75250244,0.093933105
0.111572266,-0.7798462,0.10076904
0.12207031,-0.84942627,0.1359253
0.1105957,-0.9902954,0.18255615
0.12768555,-0.90875244,0.13543701
0.076416016,-1.0513306,0.16229248
0.21313477,-1.6765747,0.08807373
-0.095458984,-0.84820557,-0.1651001
0.30029297,-0.9229126,-0.02911377
-0.14526367,-0.9692993,0.015563965
0.0048828125,-0.74102783,-0.043762207
0.072021484,-0.79693604,0.07952881
-0.21435547,-1.0427856,-0.15289307
0.20874023,-0.9421997,0.09710693
-0.18920898,-1.0222778,0.0072631836
0.035888672,-1.0256958,0.054626465
