accelX,accelY,accelZ
0.26367188,-0.8284302,-0.054260254
0.27685547,-0.659729,-0.0049438477
0.27270508,-0.6253052,0.082214355
0.2409668,-0.8128052,0.07122803
0.23486328,-1.0149536,0.1437378
0.26782227,-0.9216919,0.1708374
0.22875977,-0.89434814,0.070007324
0.36376953,-1.1028442,0.04095459
0.5073242,-1.482727,0.02557373
0.42407227,-0.80718994,-0.23980713
0.31982422,-1.0759888,-0.05279541
0.27246094,-0.7671509,0.005065918
0.13330078,-0.62750244,-0.08502197
0.1640625,-0.70440674,-0.1038208
0.2446289,-1.0291138,-0.008361816
0.03466797,-0.97491455,0.034362793
0.28051758,-1.08844,0.04827881
0.28979492,-1.4526978,0.002380371
0.40698242,-1.2593384,-0.20074463
0.5336914,-0.7227173,0.0119018555
0.09375,-0.67926025,0.0016479492
0.23486328,-0.64678955,0.02532959
0.25024414,-0.69781494,0.00579834
0.3305664,-1.0388794,0.11517334
0.20898438,-0.923645,0.10394287
0.29492188,-0.87335205,0.1605835
0.28833008,-1.0559692,0.01751709
0.49389648,-1.4824829,0.10858154
0.23608398,-0.95635986,-0.22052002
0.3786621,-0.954895,-0.058410645
0.29589844,-0.7085571,-0.0005493164
0.10839844,-0.6921997,-0.049621582
0.23046875,-0.7337036,-0.04473877
0.20996094,-0.99005127,-0.02911377
0.13745117,-0.9483032,0.085876465
0.21923828,-0.9783325,0.013366699
0.2290039,-1.2002563,-0.028625488
0.7390137,-1.506897,-0.039855957
0.44580078,-0.64068604,-0.07110596
0.34985352,-1.00177,0.06463623
0.15136719,-0.5142212,-0.012512207
0.35375977,-0.71295166,0.047058105
0.35888672,-0.9717407,0.15130615
0.2097168,-0.87286377,0.101989746
0.2980957,-0.9216919,0.1864624
0.27075195,-0.9846802,0.1317749
0.779541,-1.3779907,0.12298584
0.07739258,-1.0178833,-0.14190674
0.62109375,-0.7959595,-0.024963379
0.0859375,-0.7786255,-0.021057129
0.16088867,-0.7505493,-0.08746338
0.15576172,-0.7229614,-0.0020141602
0.15185547,-0.95391846,-0.024230957
0.17358398,-1.0203247,0.010681152
0.2697754,-1.0730591,0.0289917
0.38671875,-1.5254517,-0.109191895
0.67211914,-0.95806885,-0.13287354
0.31591797,-0.7984009,-0.08404541
0.17871094,-0.59942627,0.015319824
0.3112793,-0.6814575,0.04534912
0.2541504,-0.8335571,0.0692749
0.22094727,-0.9692993,0.109558105
0.296875,-0.8994751,0.11907959
0.23364258,-1.0015259,0.121276855
0.59594727,-1.3616333,-0.003967285
0.2265625,-1.1624146,-0.1104126
0.45166016,-0.7859497,-0.11993408
0.19213867,-0.7949829,-0.06866455
0.14550781,-0.6609497,-0.04864502
0.20019531,-0.77667236,-0.051574707
0.24780273,-0.9446411,-0.05596924
0.13330078,-0.9993286,-0.012023926
0.32910156,-0.98809814,0.017028809
0.23901367,-1.2197876,-0.047912598
0.71899414,-1.444397,-0.09576416
0.44189453,-0.60894775,-0.14312744
0.19384766,-0.81695557,0.050964355
0.25317383,-0.62677,0.042419434
0.27807617,-0.72784424,0.06414795
0.30444336,-0.960022,0.23358154
0.23461914,-0.90411377,0.22528076
0.25561523,-0.848938,0.13372803
0.23632812,-1.0166626,0.15838623
0.2199707,-0.94317627,-0.019348145
0.16308594,-0.9968872,-0.022277832
0.38916016,-1.0913696,0.019714355
0.2775879,-1.6626587,-0.24542236
0.6479492,-0.9246216,-0.1350708
0.37109375,-0.8123169,0.070495605
0.1850586,-0.34918213,0.027526855
0.33422852,-0.6553345,0.13763428
0.3557129,-1.135315,0.046325684
0.20581055,-0.91119385,0.0758667
0.18579102,-0.7959595,0.121276855
0.32128906,-1.0969849,0.12591553
0.6796875,-1.5518188,0.026062012
0.18847656,-0.85821533,-0.25006104
0.47021484,-1.0269165,-0.06451416
0.08862305,-0.6399536,-0.07891846
0.18652344,-0.7329712,-0.047424316
0.123291016,-0.7136841,-0.10064697
0.1550293,-0.9963989,-0.058898926
0.20288086,-0.9192505,-0.024230957
0.2697754,-1.1760864,0.04071045
0.46850586,-1.6372681,-0.1560669
0.36157227,-0.8464966,-0.19952393
0.50634766,-0.8491821,0.07220459
0.023925781,-0.5083618,-0.0020141602
0.36279297,-0.6199341,0.08319092
0.28955078,-1.0405884,0.1317749
0.28881836,-0.86676025,0.10076904
0.2770996,-0.9463501,0.16595459
0.40478516,-1.15802,0.039489746
0.5253906,-1.7488403,0.13079834
0.53686523,-0.42437744,-0.24273682
0.23828125,-1.0708618,-0.0178833
0.14282227,-0.58673096,-0.054504395
0.16430664,-0.77716064,-0.024230957
0.17480469,-0.8843384,-0.10430908
0.21020508,-0.9534302,0.024597168
0.15771484,-1.0647583,-0.002746582
0.32885742,-1.4624634,-0.013000488
0.7668457,-1.3005981,-0.08892822
0.3972168,-0.5515747,0.014831543
0.021728516,-0.7366333,-0.0037231445
0.37036133,-0.5264282,0.046813965
0.31323242,-0.81378174,0.053894043
0.34057617,-0.986145,0.116882324
0.20361328,-0.91290283,0.09442139
0.32592773,-1.0083618,0.15057373
0.6125488,-1.5437622,-0.07525635
0.18115234,-0.9336548,-0.29107666
0.51000977,-0.87506104,-0.086242676
0.13110352,-0.71051025,-0.06060791
0.19433594,-0.6851196,-0.093322754
0.21435547,-0.7803345,-0.046447754
0.19897461,-0.9302368,0.0072631836
0.2006836,-1.0022583,-0.033996582
0.32250977,-1.1453247,-0.008850098
0.58618164,-1.6321411,-0.13140869
0.46728516,-0.7817993,-0.13140869
0.44873047,-0.76641846,0.034606934
0.14819336,-0.6253052,0.00018310547
0.28295898,-0.66729736,0.054870605
0.39208984,-0.9241333,0.23846436
0.12207031,-0.94000244,0.12982178
0.3400879,-0.8740845,0.17132568
0.3149414,-0.6802368,-0.09967041
0.1743164,-0.74005127,-0.105285645
0.2602539,-1.1091919,0.0040893555
0.35595703,-0.9873657,0.0033569336
0.6208496,-1.5588989,-0.09967041
0.36816406,-1.0964966,-0.16534424
0.62524414,-0.4710083,0.12005615
0.021728516,-0.67755127,0.053649902
0.3071289,-0.6333618,0.082214355
0.24609375,-0.85772705,0.10394287
0.2487793,-1.0117798,0.1395874
0.25,-0.9324341,0.17547607
0.41845703,-1.2349243,-0.023986816
0.5332031,-1.4763794,-0.06329346
0.4013672,-0.59625244,-0.18560791
0.15039062,-0.798645,-0.07208252
0.1328125,-0.6802368,-0.1296997
0.22265625,-0.75177,-0.101135254
0.2290039,-0.93756104,-0.059143066
0.18164062,-0.97857666,-0.034240723
0.35083008,-1.0933228,-0.062561035
0.47753906,-1.5220337,-0.06768799
0.55566406,-0.8723755,-0.113098145
0.32958984,-0.7581177,-0.042053223
0.2175293,-0.5923462,-0.002746582
0.30322266,-0.70391846,0.08343506
0.2944336,-0.8340454,0.085632324
0.2590332,-1.0213013,0.105895996
0.095458984,-0.42242432,-0.03692627
0.3256836,-0.7085571,0.051208496
0.37963867,-1.0234985,0.12908936
0.24633789,-0.972229,0.08734131
0.36743164,-1.2544556,-0.0569458
0.69262695,-1.578186,-0.0076293945
0.21289062,-0.48980713,-0.24273682
0.27319336,-0.9678345,-0.027893066
0.09106445,-0.47027588,-0.050109863
0.15795898,-0.70318604,-0.113098145
0.19580078,-0.99176025,-0.034484863
0.13793945,-1.0540161,0.034118652
0.39624023,-1.2026978,0.030944824
0.5292969,-1.567688,-0.08013916
0.23828125,-1.0769653,-0.05718994
0.3256836,-1.1550903,0.001159668
0.4482422,-1.7681274,-0.18292236
0.4326172,-0.6421509,-0.23345947
0.3876953,-0.8496704,0.101989746
0.10522461,-0.4751587,-0.020324707
0.40576172,-0.74224854,0.09832764
0.17773438,-1.0066528,0.11541748
0.1887207,-0.9446411,0.105895996
0.23901367,-1.0112915,0.02557373
0.8874512,-1.7112427,-0.0012817383
0.34472656,-0.56622314,-0.29034424
0.40820312,-1.0261841,0.012634277
0.15966797,-0.5479126,-0.057434082
0.1340332,-0.7000122,-0.030822754
0.21411133,-0.79815674,-0.034973145
0.21777344,-1.0510864,0.025817871
0.2685547,-1.1846313,0.019958496
0.49267578,-1.5405884,-0.23150635
0.7114258,-0.95318604,-0.15655518
0.17651367,-0.62042236,0.015808105
0.25024414,-0.58062744,-0.023010254
0.3791504,-0.64263916,0.078552246
0.33569336,-0.8843384,0.07537842
0.30566406,-1.0100708,0.12322998
0.33325195,-0.92633057,0.09442139
0.77075195,-1.5877075,0.0524292
0.16040039,-0.75494385,-0.28009033
0.35351562,-0.95147705,-0.0947876
0.20410156,-0.6148071,-0.03741455
0.20166016,-0.71881104,-0.050109863
0.18359375,-0.7581177,-0.06524658
0.25561523,-0.9898071,0.0119018555
0.20727539,-1.1672974,-0.0256958
0.4855957,-1.286438,-0.08111572
0.33691406,-1.2544556,-0.1404419
0.44018555,-0.74053955,-0.089660645
0.1459961,-0.75567627,0.007751465
0.24047852,-0.76934814,0.022399902
0.15698242,-0.75250244,0.0040893555
0.2097168,-0.9224243,0.109802246
0.19946289,-0.9973755,0.10223389
0.31225586,-1.1228638,0.07489014
0.69628906,-1.7632446,0.07928467
0.3479004,-0.45611572,-0.22857666
0.27954102,-1.1553345,-0.007873535
0.16381836,-0.54937744,-0.054016113
0.15893555,-0.7151489,0.010925293
0.19799805,-0.8110962,-0.049621582
0.2590332,-1.0344849,0.06854248
0.31982422,-1.0413208,0.08538818
0.29174805,-1.5112915,-0.08843994
0.6689453,-1.0046997,-0.07647705
0.30810547,-0.73223877,-0.020812988
0.16357422,-0.65289307,-0.008361816
0.35473633,-0.49542236,0.07928467
0.34716797,-0.84088135,0.13226318
0.15966797,-1.0960083,0.116882324
0.31762695,-0.84820557,0.168396
0.44458008,-1.1453247,0.16156006
0.6035156,-1.8723755,-0.0725708
0.5283203,-0.43927002,-0.19976807
0.0925293,-0.9783325,-0.04058838
0.118652344,-0.5130005,-0.04840088
0.1303711,-0.6856079,-0.08013916
0.28833008,-0.9717407,-0.04888916
0.14501953,-1.0127563,-0.046691895
0.20776367,-0.6008911,-0.04840088
0.25805664,-0.74713135,-0.04034424
0.19848633,-0.9175415,-0.006652832
0.23583984,-0.942688,0.014343262
0.28881836,-1.0830688,0.014343262
0.4597168,-1.5161743,-0.10723877
0.62280273,-1.0349731,-0.09307861
0.40625,-0.69659424,0.016052246
0.041992188,-0.5996704,-0.02545166
0.40673828,-0.59552,0.08685303
0.30981445,-0.8892212,0.15887451
0.25732422,-0.9209595,0.1005249
0.27978516,-0.96759033,0.1305542
0.66552734,-1.367981,0.089538574
0.27661133,-1.0947876,-0.15240479
0.53686523,-0.70758057,-0.10699463
0.037109375,-0.798645,0.061706543
0.18310547,-0.62091064,-0.0049438477
0.11230469,-0.7786255,-0.054016113
0.2998047,-1.0325317,0.029968262
0.22143555,-1.0715942,0.011657715
0.3876953,-1.513977,-0.09918213
0.6357422,-1.0418091,-0.12677002
0.234375,-0.756897,-0.039123535
0.18164062,-0.6589966,-0.0413208
0.3708496,-0.54571533,0.031677246
0.2487793,-0.8442993,0.09954834
0.24121094,-0.9829712,0.10443115
0.22167969,-1.0130005,0.09515381
0.51708984,-1.2913208,0.03656006
0.26538086,-1.2505493,-0.13555908
0.642334,-0.6843872,-0.10333252
0.119140625,-0.7678833,0.014587402
0.16235352,-0.7337036,-0.016418457
0.15551758,-0.64923096,0.008972168
0.25512695,-0.96466064,0.08709717
0.24291992,-1.0361938,0.061706543
0.37402344,-1.4197388,-0.093322754
0.5827637,-1.242981,-0.011047363
0.36279297,-0.6675415,-0.10015869
0.111083984,-0.6682739,0.0079956055
0.37426758,-0.5010376,0.08074951
0.26220703,-0.9517212,0.070739746
0.22827148,-0.99224854,0.13275146
0.2163086,-0.8826294,0.16888428
0.3840332,-1.144104,-0.042297363
0.32983398,-1.6948853,-0.10870361
0.55444336,-0.522522,-0.20684814
0.114990234,-0.89801025,-0.019104004
0.14477539,-0.5195923,-0.08721924
0.11767578,-0.74786377,-0.12335205
0.27197266,-0.9673462,-0.047668457
0.9494629,-1.4031372,0.016784668
0.23901367,-0.47174072,-0.081848145
0.2602539,-0.8875122,0.040222168
0.3203125,-0.5652466,0.0446167
0.24536133,-0.7390747,0.10467529
0.20947266,-1.0444946,0.09173584
0.39038086,-0.956604,0.11639404
0.31298828,-1.1387329,-0.06549072
0.46948242,-1.5449829,-0.043029785
0.3955078,-0.51348877,-0.20074463
0.1459961,-0.89190674,-0.097717285
0.10571289,-0.8303833,-0.08355713
0.13647461,-0.645813,-0.093811035
0.25878906,-0.9365845,-0.043273926
0.18676758,-1.0081177,-0.024719238
0.30786133,-1.2654419,-0.0869751
0.5895996,-1.3855591,-0.008850098
0.46875,-0.70196533,-0.061828613
0.19677734,-0.89068604,0.054626465
0.12451172,-0.52178955,-0.062316895
0.35498047,-0.70025635,0.070739746
0.24389648,-0.9234009,0.13470459
0.21459961,-1.0003052,0.11077881
0.21899414,-1.0535278,0.09906006
0.80078125,-1.5923462,0.15545654
0.20874023,-0.62286377,-0.27178955
0.38110352,-1.0515747,0.00970459
0.09472656,-0.62091064,-0.015197754
0.19140625,-0.63531494,0.01751709
0.15625,-0.81134033,0.0048217773
0.2265625,-1.0806274,0.023376465
0.29711914,-1.1514282,0.054626465
0.51123047,-1.3626099,-0.17266846
0.56811523,-1.1279907,-0.113098145
0.57714844,-0.6001587,0.09173584
-0.013183594,-0.6760864,-0.0095825195
0.33911133,-0.56915283,0.030456543
0.29077148,-0.8591919,0.07952881
0.30371094,-0.96881104,0.11785889
0.24975586,-1.0088501,0.055847168
0.72753906,-1.565979,-0.050354004
0.12451172,-0.85235596,-0.3501587
0.4267578,-1.0244751,-0.11871338
0.12060547,-0.6194458,-0.08428955
0.14404297,-0.6807251,-0.15533447
0.20874023,-0.78790283,-0.10064697
0.27001953,-0.9126587,-0.06817627
0.39233398,-1.2932739,-0.02520752
0.49804688,-1.508606,-0.16705322
0.28759766,-0.7564087,-0.253479
0.24951172,-0.8088989,-0.055480957
0.24975586,-0.5252075,0.021911621
0.33154297,-0.65997314,0.06903076
0.27612305,-0.9702759,0.09490967
0.32641602,-0.89068604,0.10858154
0.29345703,-1.0027466,0.13348389
0.4555664,-1.3474731,-0.00982666
0.5148926,-1.2503052,-0.078430176
0.38134766,-0.65582275,-0.14776611
0.1899414,-0.8701782,-0.038635254
0.15527344,-0.6223755,-0.0803833
0.2836914,-0.69537354,-0.11260986
0.15942383,-0.99224854,-0.03668213
0.17456055,-0.9837036,-0.09820557
0.37963867,-0.96173096,-0.002746582
