accelX,accelY,accelZ
0.19018555,-0.5635376,0.02166748
0.020996094,-0.71661377,-0.020568848
-0.021728516,-0.93292236,-0.09136963
0.15649414,-1.5588989,-0.1795044
0.60791016,-1.2715454,0.0038452148
0.34423828,-0.89801025,-0.0154418945
0.43774414,-0.9199829,0.05609131
0.2084961,-0.7752075,0.018737793
0.16113281,-0.6729126,0.090026855
0.13012695,-0.5725708,0.09051514
0.017822266,-0.83062744,0.19378662
0.546875,-2.0,0.23382568
0.5354004,-1.0645142,0.015319824
0.046142578,-0.6531372,-0.20977783
0.31518555,-0.77301025,0.0036010742
-0.06298828,-1.0960083,0.07122803
0.037109375,-0.7007446,-0.046691895
0.115478516,-0.6868286,0.105163574
-0.13085938,-0.77716064,-0.04473877
0.31713867,-1.5950317,0.049743652
0.07006836,-1.6790161,-0.042053223
0.28881836,-0.92755127,-0.05230713
0.41845703,-0.7173462,0.0036010742
0.04711914,-1.144104,-0.031555176
0.22460938,-0.32208252,0.027038574
0.18017578,-0.5366821,0.034851074
0.16796875,-0.6331177,0.3168335
0.13305664,-1.5010376,0.12908936
0.33374023,-1.6348267,0.44476318
0.60546875,-1.1399536,-0.16949463
0.099121094,-1.128479,0.03656006
0.27539062,-1.3030396,-0.33551025
0.43310547,-0.68878174,-0.12579346
0.004638672,-0.8513794,-0.19805908
-0.049560547,-1.0903931,-0.008361816
0.22705078,-0.56036377,0.04437256
0.020019531,-0.6968384,-0.0095825195
-0.19873047,-1.2754517,0.023620605
0.07373047,-1.4348755,-0.09503174
0.89038086,-1.2276001,0.008483887
0.0769043,-0.8106079,0.036315918
0.37670898,-0.9024048,0.13763428
0.17773438,-0.79815674,0.04510498
0.13208008,-0.553772,0.09564209
0.14257812,-0.725647,0.08905029
0.28295898,-1.1160278,0.17718506
0.18066406,-1.2857056,0.13787842
0.623291,-1.296936,-0.10284424
0.15991211,-0.84820557,-0.07672119
0.1550293,-0.7280884,-0.1765747
0.15649414,-1.0501099,0.04144287
0.033447266,-0.77301025,-0.043518066
-0.052246094,-0.79034424,-0.013977051
-0.028320312,-0.7263794,-0.054504395
-0.076660156,-1.2407837,0.013122559
0.1928711,-1.5391235,-0.031311035
0.7246094,-1.3862915,-0.028381348
0.28637695,-0.61138916,-0.08428955
0.059570312,-0.83380127,0.00091552734
0.16088867,-0.54400635,0.009216309
0.119384766,-0.49517822,-0.023742676
0.30444336,-1.1653442,0.12200928
0.122558594,-1.350647,0.1281128
0.4411621,-1.223938,-0.22784424
0.29833984,-0.95977783,-0.20611572
0.103271484,-0.73223877,-0.1638794
0.14575195,-1.0596313,-0.031311035
0.057128906,-0.6404419,-0.10308838
-0.04248047,-0.67071533,-0.03741455
0.0009765625,-0.8196411,-0.06817627
0.10180664,-1.4465942,-0.026916504
0.17553711,-1.3779907,-0.3850708
0.37231445,-0.9089966,-0.08770752
0.33374023,-0.70977783,-0.08502197
0.15893555,-0.99835205,0.07366943
0.12573242,-0.5166626,0.059020996
0.08203125,-0.48760986,0.09442139
0.13671875,-0.88482666,0.1762085
0.37695312,-1.6123657,0.21234131
0.5515137,-1.1851196,-0.11846924
0.115234375,-1.038147,-0.25665283
0.2763672,-0.84552,-0.117248535
0.13208008,-0.8567505,0.015808105
-0.018066406,-0.4199829,-0.0071411133
0.0078125,-0.57940674,0.048034668
-0.038085938,-0.86602783,-0.013000488
-0.2006836,-2.0,0.012634277
0.10961914,-1.2886353,-0.5491333
0.7089844,-1.8318481,-0.18267822
0.26049805,-0.60284424,-0.28033447
0.515625,-1.2857056,-0.286438
0.32250977,-0.63409424,-0.21710205
0.2998047,-0.9661255,0.04071045
0.18457031,-0.6799927,0.10858154
0.114746094,-0.7114868,0.078063965
0.15258789,-0.7617798,0.11468506
0.27539062,-1.1109009,0.2584839
0.40722656,-1.4107056,0.11224365
0.49365234,-0.9212036,0.046813965
0.18066406,-1.0342407,-0.17901611
0.2397461,-0.84161377,-0.12677002
0.00024414062,-0.9507446,-0.0020141602
0.07788086,-0.7666626,-0.008117676
0.010986328,-0.7788696,0.029968262
-0.03173828,-0.6878052,-0.12530518
-0.21044922,-1.3718872,-0.2774048
0.0017089844,-1.357727,-0.2649536
0.22680664,-1.366272,0.022155762
0.41601562,-0.5210571,-0.2930298
0.20117188,-0.97979736,-0.032043457
0.09008789,-0.8713989,-0.051574707
0.13305664,-0.8110962,-0.02130127
-0.118652344,-0.8804321,0.0211792
0.25854492,-0.7449341,0.18743896
-0.07104492,-0.8220825,0.03314209
-0.10253906,-1.1365356,0.1408081
0.5957031,-1.3953247,-0.37945557
0.35253906,-1.576477,-0.25567627
0.27197266,-0.61602783,-0.5269165
0.037353516,-1.013977,-0.31280518
0.25439453,-0.86309814,-0.17022705
0.11645508,-0.5894165,-0.20904541
-0.2998047,-0.9834595,-0.19073486
0.3022461,-0.7908325,-0.2234497
0.103271484,-1.4487915,-0.4265747
0.18725586,-1.0881958,-0.28790283
0.4128418,-0.5952759,-0.21881104
0.21826172,-1.0337524,0.10614014
0.107910156,-0.6411743,0.005065918
0.20678711,-0.63726807,0.06854248
0.19848633,-0.850647,0.11029053
0.2565918,-1.4343872,0.04949951
0.34960938,-1.1543579,-0.059387207
0.10644531,-1.2849731,-0.054992676
0.2734375,-0.7554321,-0.18365479
0.0,-1.0081177,-0.10772705
0.0053710938,-0.80718994,-0.10211182
0.16259766,-0.70758057,-0.03302002
0.0107421875,-0.9065552,-0.09503174
-0.14550781,-0.99346924,-0.21002197
0.36767578,-1.3711548,-0.40533447
0.8925781,-1.427063,-0.33233643
0.35058594,-0.7095337,-0.12896729
0.24121094,-0.90167236,0.010681152
0.1508789,-0.7234497,0.0026245117
0.17260742,-0.7625122,0.10272217
0.17529297,-0.87628174,0.13104248
-0.010009766,-0.7803345,0.15765381
0.30004883,-0.9187622,0.25823975
0.068359375,-1.3618774,-0.016418457
0.24047852,-1.2786255,-0.1296997
0.22802734,-0.96954346,-0.1428833
0.38842773,-0.93951416,-0.090148926
-0.22338867,-0.9326782,-0.11431885
0.23510742,-0.6609497,-0.10089111
0.075927734,-0.55670166,-0.0076293945
-0.0625,-0.975647,-0.10626221
0.18530273,-1.6565552,-0.10601807
0.5917969,-1.3660278,-0.21173096
0.4506836,-0.89019775,-0.1519165
0.19165039,-0.8015747,-0.035949707
0.22827148,-0.6934204,0.0060424805
0.11767578,-0.52838135,0.06829834
0.07885742,-0.73028564,0.059753418
0.3256836,-1.3821411,0.109802246
0.14086914,-1.0784302,-0.023010254
0.28686523,-0.94854736,-0.024475098
0.25976562,-1.0056763,-0.24542236
0.3413086,-1.0222778,-0.00030517578
-0.07006836,-0.95318604,-0.0791626
0.09692383,-0.5449829,-0.053771973
0.0026855469,-0.6765747,-0.0491333
-0.025634766,-0.8887329,-0.1338501
0.14013672,-1.4849243,0.018493652
0.44702148,-1.4463501,-0.4109497
0.46069336,-1.0852661,-0.12896729
0.35791016,-0.7305298,-0.12945557
0.18017578,-0.92852783,-0.066711426
0.07397461,-0.67926025,0.08709717
0.1328125,-0.61676025,0.0446167
0.15527344,-0.7046509,0.2531128
0.07446289,-0.66851807,0.06756592
0.19238281,-1.6411743,0.30999756
0.12768555,-1.3181763,-0.044006348
0.35913086,-1.4866333,-0.1404419
0.22631836,-0.66729736,-0.37286377
-0.00024414062,-1.1223755,-0.13653564
0.21777344,-0.8062134,0.007019043
0.016113281,-0.48443604,-0.13189697
-0.023925781,-0.7686157,0.02532959
-0.087402344,-0.7617798,-0.08746338
0.029785156,-1.4985962,-0.026672363
0.21606445,-1.4700317,-0.31695557
0.4567871,-1.0061646,-0.300354
0.19433594,-0.64923096,-0.30792236
0.38745117,-1.0967407,-0.0869751
0.2631836,-0.630188,-0.0037231445
0.09472656,-0.8088989,-0.020812988
0.12036133,-0.70318604,0.06488037
0.08081055,-0.9846802,0.13494873
0.033203125,-1.5759888,-0.21832275
-0.0026855469,-0.99713135,-0.11138916
0.23657227,-0.87335205,-0.34259033
0.3178711,-1.1218872,0.013366699
-0.15600586,-0.71759033,-0.07745361
0.13598633,-0.65167236,-0.0025024414
0.032958984,-0.7554321,-0.008850098
-0.044189453,-1.3325806,-0.03717041
0.2746582,-1.2476196,-0.32208252
0.6088867,-1.1997681,-0.038146973
0.28173828,-0.53253174,-0.05255127
0.09838867,-0.8804321,0.08929443
0.14916992,-0.7107544,0.07269287
0.14819336,-0.8179321,0.11956787
0.11401367,-0.64434814,0.12884521
0.009277344,-0.55718994,0.184021
0.3779297,-2.0,0.3583374
0.111816406,-1.3779907,-0.28546143
0.30444336,-1.4199829,-0.3460083
0.16625977,-0.66119385,-0.33746338
0.12451172,-1.0076294,0.0048217773
0.18115234,-0.7608032,0.08709717
-0.036621094,-0.7439575,-0.005432129
-0.08129883,-0.77667236,0.16619873
-0.030029297,-0.5515747,0.015563965
-0.19702148,-1.053772,0.16766357
0.14331055,-1.3638306,-0.059631348
0.5097656,-1.9653931,0.13885498
0.6015625,-0.79644775,-0.4578247
0.57006836,-1.0593872,-0.11553955
0.115234375,-0.82354736,-0.13873291
0.20532227,-0.6055298,-0.020324707
0.1809082,-0.72442627,-0.03741455
-0.03515625,-0.85723877,-0.022033691
0.079833984,-1.1524048,-0.038146973
0.087402344,-1.5132446,-0.27545166
0.70166016,-0.94903564,-0.11578369
0.0026855469,-0.63897705,-0.2276001
0.3383789,-0.87335205,0.028747559
0.30371094,-0.8049927,-0.059143066
0.14819336,-0.67852783,0.030700684
0.18457031,-0.8789673,0.059020996
0.20825195,-0.9065552,0.20159912
-0.053955078,-1.1328735,-0.15924072
0.64331055,-1.531311,-0.12896729
0.29638672,-0.91485596,-0.22418213
0.08691406,-0.8213501,-0.21026611
0.10595703,-1.0127563,-0.105773926
0.17553711,-0.67974854,-0.046447754
-0.13208008,-0.5930786,-0.12921143
-0.025634766,-0.84552,-0.08135986
0.13452148,-1.159729,0.0040893555
-0.18530273,-1.4158325,0.0060424805
0.6315918,-1.2678833,0.07684326
0.34399414,-0.9998169,-0.32403564
0.3466797,-0.81451416,0.07659912
0.17700195,-0.7529907,0.06756592
0.20751953,-0.5894165,0.050231934
0.13183594,-0.7805786,0.03704834
0.18969727,-1.0025024,0.054626465
0.24584961,-1.3115845,0.0758667
0.5275879,-1.1912231,-0.1531372
0.28466797,-1.086731,-0.06011963
0.27783203,-0.7671509,-0.22198486
0.021484375,-1.0213013,-0.035217285
0.068847656,-0.70269775,-0.089416504
-0.040771484,-0.7234497,-0.062805176
-0.068115234,-0.7888794,-0.14019775
0.095458984,-0.9710083,-0.08795166
-0.22851562,-1.4326782,-0.20025635
0.5578613,-1.2454224,-0.18682861
0.31323242,-1.1777954,-0.32891846
0.2409668,-0.68218994,-0.10650635
0.46606445,-0.8010864,0.034851074
0.16625977,-0.770813,0.0993042
0.076171875,-0.7546997,0.08050537
0.17504883,-0.8118286,0.14178467
0.083984375,-0.986145,0.07366943
0.19335938,-1.1421509,-0.049621582
0.50146484,-1.2009888,-0.030090332
0.3203125,-1.3123169,-0.028625488
0.18237305,-0.69122314,-0.22906494
-0.08203125,-0.8389282,-0.031799316
0.44262695,-0.9175415,0.11102295
-0.09033203,-0.6362915,-0.097961426
-0.1381836,-0.51348877,-0.073791504
-0.14379883,-0.89434814,0.06414795
-0.06933594,-1.6641235,-0.050354004
0.3017578,-1.4534302,-0.38311768
0.66845703,-0.77667236,-0.054504395
0.08618164,-0.6565552,-0.31695557
0.27172852,-0.88604736,-0.109191895
0.51464844,-0.772522,0.02947998
0.13378906,-0.90802,0.008728027
0.17236328,-0.62091064,0.08123779
0.1706543,-0.57696533,0.19818115
-0.07128906,-0.8040161,0.15252686
0.12060547,-0.9365845,0.17669678
0.6020508,-1.5112915,-0.0413208
0.044677734,-1.5264282,-0.16241455
0.5656738,-0.7337036,-0.46051025
0.27661133,-0.99053955,-0.30499268
-0.025390625,-0.89019775,-0.3057251
0.23901367,-0.55303955,-0.26934814
0.091796875,-0.7630005,-0.19244385
0.00024414062,-0.7925415,-0.15655518
0.06542969,-0.97857666,-0.13775635
-0.14208984,-1.5984497,-0.29449463
0.38110352,-0.9085083,-0.16168213
0.40966797,-1.0274048,-0.11114502
0.27685547,-0.74786377,0.030700684
0.21459961,-0.92266846,-0.00079345703
0.1550293,-0.76885986,0.14056396
0.17993164,-0.67144775,0.113464355
0.12719727,-0.6983032,0.12957764
0.27929688,-1.2114868,0.16522217
0.62768555,-1.3218384,-0.1482544
0.10522461,-1.5310669,-0.13970947
0.39453125,-0.72784424,-0.2197876
0.01928711,-0.97662354,-0.08087158
0.084228516,-0.788147,-0.085510254
0.013183594,-0.6084595,0.0006713867
-0.12207031,-0.741272,-0.16217041
0.0715332,-0.831604,0.050476074
-0.48291016,-1.3604126,-0.29718018
0.16552734,-1.4758911,-0.12164307
0.82714844,-1.1983032,0.06512451
0.24389648,-0.7461548,-0.315979
0.33520508,-0.55596924,-0.085510254
0.5695801,-0.88848877,-0.144104
0.20117188,-0.7197876,-0.20269775
0.20825195,-0.8167114,0.078308105
0.16186523,-0.46343994,0.07342529
0.1953125,-0.72979736,0.08905029
0.21386719,-0.99005127,0.20916748
0.2241211,-1.1333618,0.14520264
0.12060547,-1.2896118,-0.014465332
0.34887695,-1.279602,-0.10430908
0.28857422,-0.76885986,-0.16900635
0.016601562,-0.9714966,-0.07281494
0.099853516,-0.7835083,-0.085510254
0.0871582,-0.7234497,-0.04156494
0.028808594,-0.72540283,-0.07940674
0.036621094,-1.0762329,-0.19854736
0.19042969,-1.4922485,-0.2859497
0.6723633,-1.4797974,-0.22930908
0.39892578,-0.7415161,-0.25152588
0.22753906,-0.9495239,0.003112793
0.19213867,-0.6721802,0.06585693
0.08496094,-0.5652466,0.10321045
0.12475586,-0.83966064,0.13372803
0.13842773,-1.0247192,0.19744873
0.12939453,-1.1438599,0.06732178
0.7949219,-1.3086548,-0.14874268
0.12573242,-1.0613403,-0.14312744
0.36328125,-0.7991333,-0.17559814
0.0087890625,-1.1765747,-0.10626221
0.15917969,-0.6729126,-0.06573486
0.079833984,-0.58062744,-0.06402588
-0.20678711,-0.86431885,-0.13897705
0.15625,-1.1275024,-0.11187744
0.13183594,-1.3928833,-0.21343994
0.5175781,-1.1497192,-0.17681885
0.20825195,-0.7842407,-0.24957275
0.3569336,-0.897522,0.061706543
0.12719727,-0.67510986,-0.004211426
0.15307617,-0.6643677,0.034362793
0.080322266,-0.88775635,0.0680542
0.22143555,-0.913147,0.1630249
0.11328125,-1.1467896,0.057556152
0.55200195,-1.2974243,-0.28912354
0.3557129,-1.0564575,-0.13702393
0.37646484,-0.9661255,-0.03643799
-0.060302734,-0.9741821,-0.046936035
0.14379883,-0.73150635,0.019714355
0.0021972656,-0.6189575,-0.018859863
0.025146484,-0.8308716,-0.0044555664
0.06518555,-1.3030396,0.0692749
0.119140625,-1.3508911,0.06976318
0.5900879,-1.1433716,-0.11431885
