accelX,accelY,accelZ
0.40966797,-1.1621704,-0.2498169
0.07714844,-0.892395,-0.07354736
-0.057373047,-1.072815,0.03289795
0.118652344,-0.5339966,0.02508545
0.07397461,-0.6350708,0.07244873
0.11230469,-1.3174438,0.14105225
0.028808594,-1.2664185,0.018493652
0.034179688,-1.4927368,-0.20245361
0.030761719,-0.6646118,-0.286438
-0.0009765625,-1.0774536,0.14569092
-0.008300781,-0.4915161,-0.101135254
-0.044921875,-0.9002075,-0.066711426
-0.061035156,-1.2942505,-0.14337158
0.13696289,-1.2686157,-0.18048096
0.31201172,-1.098938,-0.0025024414
-0.06323242,-0.8689575,-0.094055176
0.05126953,-0.9343872,0.055114746
0.059570312,-0.54034424,0.015808105
0.041748047,-0.8352661,0.078308105
0.08862305,-1.4251099,0.07904053
0.2331543,-1.4319458,-0.23931885
-0.106933594,-0.80841064,-0.35894775
0.17041016,-0.8904419,-0.1350708
-0.0048828125,-0.63653564,0.024353027
-0.045654297,-0.7061157,-0.07745361
-0.001953125,-1.361145,-0.010803223
-0.040771484,-1.2649536,0.04144287
0.5578613,-1.3413696,-0.21368408
-0.0715332,-0.7793579,-0.06036377
-0.036376953,-0.8862915,0.07562256
0.08642578,-0.5305786,-0.0015258789
0.17504883,-0.94537354,0.11883545
0.028564453,-1.1731567,0.08074951
-0.001953125,-1.2837524,0.05657959
-0.026611328,-1.1047974,-0.10626221
0.061035156,-0.8250122,-0.13311768
-0.018554688,-0.8953247,0.025817871
-0.025634766,-0.5720825,-0.055725098
-0.04345703,-1.0437622,-0.074523926
-0.08178711,-1.2930298,-0.06524658
0.1796875,-1.4058228,-0.29156494
0.24023438,-0.84820557,0.019470215
0.040283203,-1.0562134,0.00970459
0.07128906,-0.6253052,-0.046691895
0.09741211,-0.6211548,-0.013000488
0.072021484,-1.076477,0.085632324
0.13427734,-1.2417603,0.14788818
0.03466797,-1.3460083,-0.13165283
0.06616211,-0.7822876,-0.24542236
0.087646484,-0.9949341,-0.06744385
0.046142578,-0.7251587,-0.024963379
-0.08300781,-0.6292114,-0.12286377
-0.14208984,-1.3584595,-0.042541504
-0.0014648438,-1.2756958,-0.11065674
0.40698242,-0.92633057,-0.28204346
-0.114746094,-1.0513306,-0.07989502
0.12841797,-0.8796997,-0.0056762695
0.024169922,-0.58966064,-0.026428223
0.19702148,-0.7739868,0.04095459
0.12890625,-1.3877563,0.05316162
0.0871582,-1.206604,-0.06109619
0.17407227,-1.1726685,-0.23077393
0.053466797,-0.6902466,-0.17901611
0.11352539,-0.9741821,0.05999756
-0.091796875,-0.5823364,-0.13775635
-0.05126953,-1.1567993,-0.12701416
0.087646484,-1.2854614,-0.08087158
-0.030029297,-1.0493774,-0.4336548
0.49731445,-1.1170044,0.018737793
-0.043701172,-0.91290283,-0.14019775
0.12646484,-0.6350708,-0.051818848
0.21850586,-0.5393677,-0.026184082
0.24121094,-1.5022583,0.023132324
0.07055664,-1.1499634,-0.15386963
0.29760742,-1.354065,-0.30963135
0.107666016,-0.6133423,-0.2564087
0.07543945,-0.9133911,-0.06060791
0.075927734,-0.5120239,-0.15240479
-0.09643555,-1.2698364,-0.2185669
0.11816406,-1.3074341,-0.19610596
0.31933594,-1.0662231,-0.31744385
0.11791992,-0.83843994,-0.13824463
0.1459961,-1.0283813,-0.018371582
0.064697266,-0.67803955,-0.069885254
0.15405273,-0.66851807,-0.008361816
0.15893555,-1.2610474,0.06536865
-0.044921875,-1.1519165,-0.13775635
0.3178711,-1.2351685,-0.21490479
-0.018310547,-0.833313,-0.1326294
0.0,-0.77911377,-0.0049438477
0.053955078,-0.56134033,-0.085998535
-0.20874023,-1.232727,-0.17608643
0.1171875,-1.4216919,-0.097229004
0.33618164,-1.0681763,-0.30718994
-0.04711914,-0.8098755,-0.054992676
0.15551758,-1.0027466,0.07293701
0.015136719,-0.50860596,-0.08331299
0.31103516,-0.8587036,0.06390381
0.10131836,-1.335022,0.08392334
0.07299805,-1.1790161,-0.2000122
0.21655273,-0.9927368,-0.35479736
-0.072509766,-0.84698486,-0.15631104
0.07543945,-0.83428955,-0.108947754
0.08935547,-0.6983032,-0.09844971
-0.114990234,-1.2410278,-0.21124268
0.08544922,-1.0447388,-0.22076416
0.33520508,-1.0859985,-0.16680908
-0.016601562,-0.9048462,-0.14752197
0.18823242,-0.9873657,0.061950684
0.1003418,-0.74053955,-0.047424316
0.07299805,-0.69244385,0.016296387
0.24169922,-1.3076782,0.14105225
-0.16821289,-1.1975708,-0.038391113
0.24145508,-1.0903931,-0.13409424
0.0021972656,-0.7859497,-0.1453247
0.020996094,-0.8977661,-0.04840088
0.0078125,-0.60406494,-0.09185791
-0.04272461,-1.1814575,-0.054748535
0.06225586,-1.381897,-0.16461182
0.3503418,-1.1152954,-0.27471924
-0.13256836,-0.8335571,-0.12286377
0.16113281,-0.92022705,0.03363037
0.026855469,-0.692688,-0.04449463
0.14355469,-0.8533325,0.05291748
0.05834961,-1.2622681,0.08709717
0.07495117,-1.3320923,-0.18511963
0.07543945,-0.85894775,-0.28424072
0.068115234,-0.975647,-0.07354736
0.037841797,-0.817688,-0.042541504
-0.14868164,-0.5750122,-0.09161377
0.010498047,-1.2434692,-0.066711426
-0.0087890625,-1.2307739,-0.11456299
0.4567871,-1.3950806,-0.24102783
-0.037109375,-0.68878174,-0.046936035
0.060058594,-1.0569458,0.029724121
0.07763672,-0.6399536,-0.031555176
0.13891602,-0.788147,-0.0064086914
0.11401367,-1.3098755,0.027282715
-0.028564453,-1.1192017,-0.10455322
0.07055664,-1.2937622,-0.175354
0.2915039,-0.6721802,-0.18267822
-0.08178711,-0.96710205,0.06585693
0.09326172,-0.43902588,-0.11236572
-0.107910156,-1.2080688,-0.17510986
0.12841797,-1.3010864,-0.11187744
0.23144531,-1.1611938,-0.4175415
-0.068603516,-0.9536743,-0.07501221
0.17358398,-0.78790283,-0.03741455
-0.00048828125,-0.75665283,-0.027648926
0.22045898,-0.70513916,0.090270996
0.07324219,-1.5132446,0.11981201
0.10595703,-1.197815,-0.21636963
0.16040039,-0.90338135,-0.38555908
-0.072509766,-0.9702759,-0.0713501
0.2043457,-0.60650635,-0.097229004
-0.10229492,-0.73760986,-0.13922119
0.013427734,-1.3435669,-0.18487549
0.21875,-1.2871704,-0.237854
0.44970703,-0.9011841,0.002380371
-0.06665039,-1.0293579,-0.2144165
0.07324219,-0.7234497,-0.07476807
0.21875,-0.55010986,0.039001465
0.2019043,-1.3242798,0.04510498
-0.026123047,-1.242981,0.06512451
0.29858398,-1.1763306,-0.3562622
-0.0043945312,-0.7078247,-0.17706299
-0.11303711,-1.0518188,-0.035217285
0.14379883,-0.5396118,-0.089416504
-0.27368164,-1.170227,-0.13311768
0.22338867,-1.3716431,-0.15655518
0.2163086,-1.031311,-0.33599854
-0.036865234,-0.94488525,-0.04864502
0.106933594,-0.82598877,-0.0064086914
0.04296875,-0.58721924,-0.11090088
0.30200195,-0.92755127,0.07611084
0.03930664,-1.3381958,-0.008850098
0.2680664,-1.428772,-0.27886963
0.026123047,-0.6968384,-0.37701416
-0.061279297,-1.1213989,-0.022033691
0.17651367,-0.5772095,-0.035705566
-0.22973633,-0.6416626,-0.18048096
0.111816406,-1.5256958,-0.13018799
0.19873047,-1.1494751,-0.3682251
0.3544922,-0.93414307,0.022644043
0.060546875,-1.0686646,-0.014709473
-0.091796875,-0.7217407,-0.010070801
0.1159668,-0.55596924,-0.002746582
0.19238281,-1.2056274,0.17913818
0.061279297,-1.2097778,0.19403076
0.3017578,-1.1604614,-0.35992432
0.107910156,-1.05719,-0.25665283
-0.043701172,-1.0029907,-0.0012817383
0.2578125,-0.5967407,-0.023254395
-0.1328125,-0.6914673,0.010192871
-0.10205078,-0.8406372,0.006286621
-0.05029297,-1.1348267,0.047058105
-0.0546875,-1.4163208,0.08074951
0.42163086,-0.98883057,-0.16778564
0.09863281,-0.95635986,-0.04156494
0.07348633,-1.0913696,0.06878662
0.091552734,-0.73565674,0.07171631
-0.1081543,-0.95147705,0.14178467
0.05834961,-1.1448364,0.25482178
0.03857422,-1.4627075,0.2694702
0.4494629,-1.0574341,-0.43048096
-0.25952148,-1.050354,-0.10089111
0.16479492,-0.79693604,0.017028809
-0.18383789,-0.57598877,-0.03277588
0.10058594,-1.1382446,0.031677246
-0.055419922,-1.208313,-0.06036377
0.17797852,-1.3423462,-0.5132446
0.07788086,-0.81378174,0.12957764
0.010498047,-1.0220337,-0.003967285
0.044433594,-0.7041626,-0.082336426
0.19238281,-0.6987915,0.07171631
0.14355469,-1.2835083,0.02923584
-0.04296875,-1.15802,-0.070373535
0.0690918,-1.0457153,-0.25787354
-0.061523438,-0.8831177,-0.11651611
0.26611328,-0.7463989,-0.0256958
-0.16015625,-0.71295166,-0.09552002
0.03491211,-1.3491821,-0.06500244
0.07397461,-1.2420044,-0.17852783
0.36450195,-1.178772,-0.13018799
-0.09448242,-0.7346802,-0.09576416
0.005859375,-0.96588135,0.08856201
0.17138672,-0.7439575,-0.030578613
0.095214844,-0.8875122,0.10076904
0.037597656,-1.2180786,0.13275146
-0.033935547,-1.2634888,-0.045715332
0.0847168,-1.0491333,-0.17095947
0.032226562,-0.8098755,-0.015197754
0.100097656,-0.8831177,0.06707764
-0.10058594,-0.598938,-0.07086182
-0.06933594,-1.2036743,-0.14874268
0.13354492,-1.2053833,-0.042053223
0.1484375,-0.95196533,-0.34674072
-0.052734375,-1.0435181,-0.032287598
0.088134766,-0.9434204,0.06390381
-0.028808594,-0.73443604,0.035583496
0.10473633,-0.68634033,-0.023498535
0.12036133,-1.1731567,-0.012756348
0.041259766,-1.3735962,-0.09503174
0.19213867,-1.0933228,-0.31207275
-0.021484375,-1.0564575,-0.120910645
0.07885742,-0.8713989,-0.00982666
-0.110839844,-0.6404419,-0.1182251
-0.01977539,-1.0310669,-0.03302002
0.13085938,-1.2341919,-0.20050049
0.4025879,-0.9758911,-0.27301025
-0.092285156,-1.0239868,-0.13873291
0.234375,-0.8897095,0.013366699
0.0690918,-0.7661743,0.023864746
0.17822266,-0.89508057,0.0692749
0.045410156,-1.1167603,-0.016662598
0.18115234,-1.3550415,-0.18389893
0.039794922,-0.835022,-0.31427002
0.051757812,-1.0049438,0.0036010742
0.07910156,-0.5940552,-0.08453369
-0.07543945,-0.85772705,-0.10284424
0.040039062,-1.2466431,-0.09844971
0.13354492,-1.1306763,-0.105041504
0.43164062,-1.2398071,-0.24005127
0.034179688,-0.78863525,-0.12213135
0.111816406,-1.1272583,0.03778076
0.123535156,-0.70269775,-0.007873535
0.017822266,-0.9043579,0.055847168
0.14624023,-1.0891724,0.019470215
0.03491211,-1.3189087,-0.06866455
0.2097168,-0.98443604,-0.26763916
-0.12084961,-0.8399048,-0.054504395
0.111816406,-0.7024536,-0.08380127
0.001953125,-0.74786377,-0.108947754
-0.10449219,-1.2810669,-0.0960083
0.075927734,-1.1333618,-0.13165283
0.53100586,-1.2061157,-0.034240723
-0.0017089844,-0.7979126,-0.1531372
0.1237793,-1.1409302,0.06414795
0.09008789,-0.7012329,-0.013000488
0.16552734,-0.9209595,0.10247803
0.087890625,-1.0984497,0.07147217
0.17675781,-1.3245239,-0.0015258789
0.13354492,-0.9343872,-0.12677002
-0.18725586,-0.9014282,-0.14263916
0.12109375,-0.88726807,0.010437012
-0.02368164,-0.5913696,-0.03253174
-0.095458984,-1.0889282,0.016052246
-0.15917969,-1.2998657,0.05609131
0.08129883,-1.1448364,-0.2942505
0.43774414,-1.2908325,0.0289917
-0.053710938,-0.5725708,-0.11114502
0.15795898,-1.1365356,0.12322998
-0.059570312,-0.7061157,0.011657715
0.17016602,-0.9685669,0.18060303
-0.0017089844,-1.1565552,0.08905029
0.28881836,-1.347229,-0.3015747
-0.00048828125,-0.7246704,-0.3184204
-0.05053711,-1.1050415,-0.023010254
0.06616211,-0.63604736,-0.02935791
-0.08520508,-1.0059204,-0.057434082
0.020751953,-1.2710571,-0.047424316
0.080322266,-1.0232544,-0.46588135
0.45776367,-1.1043091,0.07952881
-0.040527344,-0.7842407,-0.18096924
0.10913086,-0.9776001,0.042907715
0.057861328,-0.5911255,0.0138549805
0.15893555,-1.0911255,0.07513428
-0.068359375,-1.1651001,0.0848999
0.35620117,-1.4207153,-0.33135986
-0.07299805,-0.75982666,-0.3826294
-0.14428711,-0.9534302,-0.00982666
0.1027832,-0.68414307,-0.003479004
-0.13989258,-0.84161377,-0.15045166
-0.10961914,-1.3469849,-0.010070801
0.20385742,-0.99468994,-0.32574463
0.43164062,-1.2258911,0.07196045
0.09765625,-0.80548096,-0.1494751
0.009521484,-0.8711548,-0.02545166
0.09423828,-0.628479,-0.010070801
0.08203125,-0.9741821,0.04559326
0.10473633,-1.2940063,0.09710693
0.1940918,-1.3235474,-0.24176025
-0.10522461,-0.87213135,-0.3201294
0.0041503906,-0.9060669,-0.08673096
0.14697266,-0.7761841,-0.003479004
-0.1262207,-0.7744751,-0.1362915
0.015625,-1.3340454,-0.13995361
0.13134766,-1.2080688,-0.4397583
0.5397949,-0.8987427,0.0680542
-0.044677734,-1.0027466,-0.2041626
0.06713867,-0.7324829,-0.027160645
0.1628418,-0.64971924,0.0018920898
0.06640625,-1.1633911,0.101989746
-0.011474609,-1.3757935,0.086120605
0.26904297,-1.031311,-0.28009033
0.0014648438,-0.70562744,-0.15460205
-0.016845703,-1.0122681,-0.035217285
0.09838867,-0.71539307,-0.15167236
-0.09716797,-1.1463013,-0.18511963
0.109375,-1.2417603,-0.06866455
0.14648438,-0.90509033,-0.44659424
0.026367188,-1.1450806,-0.062561035
0.03125,-0.85772705,0.0026245117
-0.014892578,-0.6572876,0.0014038086
0.14331055,-0.8452759,0.109313965
-0.052246094,-1.4324341,0.08416748
0.08618164,-1.1394653,-0.116760254
-0.052246094,-0.86798096,-0.3279419
-0.0073242188,-1.0430298,0.05291748
0.05444336,-0.54522705,-0.0178833
-0.039794922,-0.83917236,-0.069885254
-0.10058594,-1.4280396,-0.05645752
0.033447266,-1.1438599,-0.3447876
0.44628906,-1.0076294,0.17596436
-0.091552734,-0.92974854,-0.13775635
0.060058594,-0.8518677,0.048034668
0.11303711,-0.70440674,-0.024719238
0.11450195,-1.1348267,0.13104248
-0.014892578,-1.1052856,-0.040100098
0.23144531,-1.27594,-0.23394775
-0.20214844,-0.72247314,-0.24932861
0.067871094,-1.0640259,-0.045715332
-0.033691406,-0.55670166,-0.08404541
-0.075683594,-1.0889282,-0.10699463
0.045166016,-1.2571411,-0.12213135
0.07006836,-1.1914673,-0.5274048
0.30566406,-1.067688,0.006286621
-0.10473633,-0.69976807,-0.03741455
0.03881836,-0.6243286,0.0072631836
0.19897461,-0.7036743,-0.022766113
-0.0026855469,-1.4224243,0.13421631
0.06762695,-1.1109009,-0.101379395
0.35253906,-1.3499146,-0.2781372
-0.21582031,-0.75860596,-0.1260376
0.12548828,-0.9783325,0.049743652
0.016357422,-0.5588989,-0.0960083
-0.122558594,-1.2297974,-0.08258057
0.22265625,-1.3389282,-0.1494751
0.34350586,-1.210022,-0.2185669
-0.017333984,-0.8286743,-0.16217041
