accelX,accelY,accelZ
-0.25024414,-0.9536743,-0.11871338
-0.22167969,-1.0198364,-0.13189697
0.014160156,-0.83062744,-0.04107666
-0.28320312,-1.2654419,-0.14239502
-0.30200195,-1.0930786,0.005554199
-0.19555664,-0.8430786,0.022399902
-0.09887695,-0.973938,0.023132324
-0.119628906,-1.00177,0.07098389
-0.10205078,-1.0791626,0.026794434
-0.28955078,-1.3171997,-0.035461426
-0.17797852,-1.6502075,-0.2041626
0.5305176,-0.64971924,-0.3526001
-0.23461914,-0.87286377,-0.18804932
-0.21704102,-0.6321411,-0.144104
-0.13647461,-0.7427368,-0.17633057
-0.41259766,-1.0794067,-0.17022705
-0.0793457,-1.0838013,-0.2810669
-0.26733398,-1.1848755,-0.644104
0.013427734,-1.2109985,-0.34210205
0.26489258,-0.8189087,-0.16314697
-0.23535156,-0.86187744,-0.18389893
0.0048828125,-0.6668091,-0.10333252
-0.05859375,-0.76031494,-0.070617676
-0.118896484,-0.9714966,-0.1116333
-0.13598633,-1.2520142,-0.028869629
0.49316406,-1.4944458,-0.5401001
0.088378906,-0.77008057,-0.40631104
-0.15625,-1.0100708,-0.36309814
-0.23144531,-0.8140259,-0.18121338
-0.122802734,-0.6865845,-0.22930908
-0.037841797,-0.8928833,-0.29718018
-0.1472168,-0.9937134,-0.34283447
-0.26391602,-1.1033325,-0.30670166
0.07348633,-1.1594849,-0.5491333
-0.2866211,-0.82281494,-0.30377197
0.07910156,-0.986145,-0.10308838
-0.10253906,-0.7642212,-0.14605713
-0.13867188,-0.83477783,-0.1272583
-0.111328125,-0.90411377,-0.058166504
-0.059814453,-0.96051025,-0.08770752
-0.2565918,-1.0447388,-0.20562744
-0.056640625,-0.9295044,-0.12506104
-0.20092773,-1.0064087,-0.1260376
-0.29101562,-0.97052,-0.12359619
-0.03955078,-0.9961548,-0.10455322
-0.27954102,-1.0320435,0.044128418
-0.18530273,-1.0432739,0.0524292
-0.20043945,-0.8284302,-0.028625488
-0.28076172,-1.0437622,0.014587402
-0.10253906,-0.9727173,-0.02911377
-0.25683594,-1.232727,0.08782959
0.100097656,-1.2876587,-0.5459595
-0.47436523,-1.2175903,-0.4812622
-0.111083984,-1.0147095,-0.28399658
-0.029052734,-0.6170044,-0.18243408
-0.061767578,-0.6904907,-0.18389893
-0.09448242,-0.8286743,-0.20269775
-0.3840332,-1.144104,-0.27471924
-0.03564453,-1.175354,-0.3508911
0.5053711,-1.5698853,-0.36724854
0.009277344,-0.6477661,-0.25933838
-0.21899414,-0.9031372,-0.12921143
0.09350586,-0.59576416,-0.04840088
0.048339844,-0.7595825,-0.015686035
-0.080322266,-1.0320435,-0.05718994
-0.03540039,-1.12677,-0.04449463
0.26831055,-1.5249634,-0.48272705
-0.2475586,-0.76446533,-0.40045166
-0.27001953,-1.0501099,-0.21368408
-0.10913086,-0.5112915,-0.13433838
-0.13769531,-0.68218994,-0.19952393
-0.10620117,-0.9751587,-0.29840088
-0.30322266,-1.2122192,-0.32574463
-0.18286133,-1.0449829,-0.62091064
0.3623047,-1.413147,-0.2576294
0.23095703,-0.8311157,-0.13336182
-0.015625,-0.62750244,-0.15924072
-0.01953125,-0.58135986,-0.089416504
-0.0007324219,-0.9277954,-0.08770752
-0.0073242188,-1.0752563,-0.15557861
-0.28466797,-1.0564575,-0.014953613
0.44848633,-1.831604,-0.41558838
0.3869629,-0.66656494,-0.38189697
-0.15893555,-0.7971802,-0.24639893
-0.19555664,-0.49908447,-0.12164307
-0.11352539,-0.70977783,-0.1807251
-0.08227539,-1.1506958,-0.30352783
-0.20239258,-1.1409302,-0.2666626
-0.40722656,-1.2424927,-0.5527954
-0.21826172,-1.1118774,-0.31280518
0.09033203,-1.0344849,-0.06304932
-0.044677734,-0.7000122,-0.0960083
0.16186523,-0.6799927,-0.11456299
-0.19335938,-0.8867798,-0.057434082
-0.16088867,-1.0169067,-0.039367676
0.028076172,-1.2317505,-0.553772
-0.64990234,-1.2922974,-0.3328247
0.020996094,-1.0261841,-0.2991333
-0.10668945,-0.6001587,-0.20953369
-0.15332031,-0.69537354,-0.1807251
-0.12768555,-0.8152466,-0.26519775
-0.22998047,-1.003479,-0.21392822
-0.24633789,-1.0276489,-0.31866455
-0.1940918,-1.3294067,-0.5425415
-0.29663086,-1.1841431,-0.3562622
0.2434082,-1.0003052,-0.21124268
0.016601562,-0.81329346,-0.16729736
0.122558594,-0.7312622,-0.1638794
-0.029785156,-0.83795166,-0.097717285
-0.036865234,-0.9456177,-0.12554932
-0.11645508,-1.1370239,0.013122559
0.5859375,-1.4163208,-0.27423096
0.12207031,-0.7476196,-0.4212036
-0.20507812,-1.0386353,-0.23443604
-0.140625,-0.63067627,-0.22833252
-0.17504883,-0.7539673,-0.2276001
-0.104003906,-0.83599854,-0.26715088
-0.29101562,-0.91241455,-0.255188
-0.20092773,-0.9397583,-0.25054932
-0.22851562,-1.0100708,-0.24273682
-0.30297852,-1.048645,-0.113342285
-0.22998047,-0.8284302,-0.17559814
-0.15429688,-1.0281372,-0.13726807
-0.2631836,-0.9614868,-0.12677002
-0.3491211,-1.1685181,-0.057922363
-0.24243164,-0.9661255,0.0004272461
-0.07446289,-1.0073853,0.026550293
-0.19848633,-0.9365845,0.009460449
-0.20727539,-1.0298462,0.024597168
-0.30737305,-1.27594,0.070007324
0.47070312,-1.6182251,-0.46295166
-0.10839844,-0.8447876,-0.4085083
-0.29956055,-0.9902954,-0.31524658
-0.10253906,-0.5835571,-0.19903564
-0.11206055,-0.6223755,-0.17315674
-0.18920898,-1.0098267,-0.33111572
-0.25463867,-1.1113892,-0.42071533
-0.24243164,-1.1211548,-0.5420532
0.48754883,-1.3008423,-0.18389893
0.1430664,-0.8665161,-0.10455322
-0.119140625,-0.644104,-0.1038208
0.05859375,-0.66900635,-0.10333252
-0.13891602,-0.9492798,-0.06695557
-0.0063476562,-0.8977661,-0.11114502
-0.087402344,-1.1460571,-0.04083252
0.69311523,-1.6091919,-0.6057739
0.12207031,-0.8171997,-0.4229126
-0.24536133,-0.92388916,-0.3640747
-0.12402344,-0.59869385,-0.20465088
-0.06518555,-0.6399536,-0.22296143
-0.16113281,-0.9273071,-0.35186768
-0.18237305,-1.1106567,-0.39508057
-0.14208984,-1.0513306,-0.63238525
0.5073242,-1.4214478,-0.24932861
0.30371094,-0.7271118,-0.31695557
-0.049072266,-0.83258057,-0.16998291
0.03466797,-0.7527466,-0.11260986
-0.1081543,-0.74102783,-0.12261963
-0.11376953,-0.9307251,-0.10699463
-0.048095703,-0.94732666,-0.117004395
0.17358398,-1.2793579,-0.31939697
-0.4880371,-0.6045532,-0.015686035
-0.030761719,-1.1121216,-0.18878174
-0.22753906,-1.0256958,0.05267334
-0.18017578,-0.9558716,-0.021057129
-0.22753906,-0.9421997,-0.013244629
-0.19580078,-1.1880493,0.066101074
-0.36450195,-1.2688599,-0.020812988
-0.38476562,-1.3806763,-0.21807861
0.43798828,-0.83428955,-0.36676025
-0.16748047,-0.7503052,-0.24639893
-0.17114258,-0.6585083,-0.1416626
-0.18066406,-0.6734009,-0.20391846
-0.16821289,-1.0020142,-0.27716064
-0.28759766,-1.187561,-0.2852173
-0.24951172,-1.2444458,-0.4932251
0.5834961,-1.3164673,-0.27960205
0.076660156,-0.7234497,-0.1494751
-0.16259766,-0.70758057,-0.21173096
-0.091308594,-0.7732544,-0.1026001
-0.049072266,-0.8501587,-0.0803833
-0.087890625,-1.0828247,-0.038635254
-0.19506836,-1.1240845,-0.10601807
0.45776367,-1.4268188,-0.49517822
-0.61157227,-0.7161255,-0.347229
-0.26611328,-1.1328735,-0.2539673
-0.044677734,-0.6343384,-0.12506104
-0.20996094,-0.71295166,-0.15167236
-0.21533203,-0.93170166,-0.24884033
-0.20336914,-0.9780884,-0.24224854
-0.21655273,-1.3867798,-0.29888916
-0.17578125,-1.2214966,-0.62164307
-0.46069336,-0.8081665,-0.3640747
-0.106933594,-1.0772095,-0.13555908
0.022460938,-0.58013916,-0.12017822
-0.025146484,-0.7461548,-0.089904785
-0.03857422,-0.9258423,-0.12530518
-0.08666992,-1.0542603,-0.1260376
-0.35888672,-1.2034302,-0.117004395
0.08544922,-1.4534302,-0.3862915
0.47460938,-0.78985596,-0.4451294
-0.15136719,-0.9126587,-0.28668213
-0.15698242,-0.5557251,-0.1585083
-0.057617188,-0.58966064,-0.24102783
-0.19384766,-1.046936,-0.24224854
-0.28320312,-1.2212524,-0.39239502
-0.16381836,-1.086731,-0.51763916
0.7504883,-1.53302,-0.2822876
0.0026855469,-0.5586548,-0.1831665
-0.03881836,-0.8206177,-0.12677002
0.0061035156,-0.6157837,-0.08795166
-0.079833984,-0.84698486,-0.09161377
-0.111816406,-1.036438,-0.08648682
-0.088378906,-1.1948853,-0.003479004
0.025146484,-1.2666626,-0.54278564
-0.8691406,-1.1177368,-0.32647705
-0.01586914,-1.1365356,-0.23712158
-0.0053710938,-0.54815674,-0.16265869
-0.1730957,-0.616272,-0.18829346
-0.1015625,-0.8399048,-0.286438
-0.23730469,-1.0227661,-0.33746338
-0.14868164,-1.286438,-0.41436768
0.025878906,-1.2859497,-0.5640259
-0.23291016,-0.82232666,-0.3513794
-0.023925781,-0.9439087,-0.15753174
0.014160156,-0.70269775,-0.10748291
-0.030761719,-0.694397,-0.062316895
-0.07836914,-0.8831177,-0.034484863
-0.060302734,-1.0039673,-0.07647705
-0.33935547,-1.1343384,-0.031555176
0.2355957,-1.5493774,-0.36236572
0.38134766,-0.8723755,-0.3484497
-0.17236328,-0.9170532,-0.2930298
-0.123046875,-0.6646118,-0.16363525
-0.12133789,-0.6890259,-0.18804932
-0.15112305,-0.88067627,-0.23248291
-0.27392578,-0.91241455,-0.22198486
-0.1850586,-0.9331665,-0.25152588
-0.1784668,-1.1531372,-0.1795044
-0.22387695,-0.7686157,-0.16607666
-0.32763672,-1.0877075,-0.1951294
-0.16259766,-0.866272,-0.10015869
0.072021484,-0.9414673,-0.12994385
-0.29492188,-1.0901489,0.08905029
-0.1340332,-0.92559814,0.005065918
-0.12524414,-1.046936,0.12225342
-0.23339844,-0.89801025,-0.016174316
-0.29956055,-1.1741333,-0.046447754
-0.40722656,-1.3914185,-0.050354004
-0.57250977,-1.4651489,-0.3110962
0.4111328,-0.923645,-0.43634033
-0.20361328,-0.612854,-0.22955322
-0.19458008,-0.46002197,-0.19805908
-0.13256836,-0.69537354,-0.29278564
-0.20117188,-1.0535278,-0.26104736
-0.35107422,-1.0952759,-0.30743408
-0.25732422,-1.1860962,-0.35040283
0.5686035,-1.5969849,-0.39019775
-0.13720703,-0.6567993,-0.2366333
-0.095458984,-0.8533325,-0.120666504
-0.057617188,-0.69537354,-0.13092041
-0.15039062,-0.80718994,-0.046447754
-0.10522461,-0.92022705,-0.05206299
0.0068359375,-1.133606,-0.014953613
-0.13427734,-1.2373657,-0.5286255
-0.7470703,-1.3945923,-0.29058838
0.009765625,-1.0066528,-0.36505127
-0.07470703,-0.8164673,-0.16558838
-0.16333008,-0.5667114,-0.10992432
-0.19238281,-0.70880127,-0.20611572
-0.20141602,-1.0820923,-0.27301025
-0.22851562,-1.0579224,-0.35430908
-0.2626953,-1.114563,-0.62384033
-0.14404297,-1.1697388,-0.19171143
0.2602539,-1.0147095,-0.24786377
-0.12890625,-0.75177,-0.13702393
-0.072265625,-0.6939087,-0.11773682
-0.16796875,-0.833313,-0.108947754
-0.11669922,-1.0154419,-0.042053223
-0.20678711,-0.97247314,-0.20831299
-0.29614258,-0.8743286,-0.1494751
0.0,-1.1192017,-0.12628174
-0.20898438,-0.9585571,-0.18243408
-0.06689453,-0.8748169,-0.19830322
-0.48779297,-1.117981,-0.04156494
-0.12719727,-0.8928833,-0.032043457
-0.2290039,-0.9036255,-0.01763916
-0.28198242,-1.1011353,0.008483887
-0.23583984,-1.2769165,-0.023498535
-0.037109375,-1.4966431,-0.3423462
0.10424805,-0.67144775,-0.42095947
-0.20092773,-0.9776001,-0.284729
-0.12939453,-0.71173096,-0.2288208
-0.03955078,-0.62579346,-0.16412354
-0.2939453,-0.9446411,-0.20343018
-0.2746582,-0.93414307,-0.22296143
-0.32983398,-1.1607056,-0.20318604
-0.35839844,-1.1575317,-0.77911377
0.076416016,-0.9949341,-0.23394775
0.080566406,-0.956604,-0.09942627
-0.103027344,-0.64849854,-0.12017822
-0.041503906,-0.75006104,-0.05279541
-0.20532227,-0.89727783,-0.08770752
-0.060791016,-0.98272705,-0.112854004
-0.37109375,-1.1477661,-0.028625488
0.7175293,-1.4024048,-0.39727783
-0.06567383,-0.76446533,-0.31402588
-0.31689453,-0.9456177,-0.25738525
-0.0078125,-0.6826782,-0.19976807
-0.19335938,-0.7337036,-0.13189697
-0.052490234,-0.8718872,-0.21881104
-0.3515625,-1.0928345,-0.17388916
-0.19824219,-1.1570435,-0.3411255
0.21948242,-1.4707642,-0.362854
-0.036376953,-0.75323486,-0.2522583
-0.022705078,-0.97052,-0.06060791
0.110839844,-0.6836548,-0.12432861
-0.08203125,-0.71881104,-0.113586426
-0.07324219,-0.9421997,-0.086242676
-0.15014648,-1.2444458,-0.1482544
-0.41577148,-1.0591431,-0.34332275
-0.4423828,-1.3247681,-0.2546997
0.58618164,-0.831604,-0.43145752
-0.12866211,-0.6494751,-0.18048096
-0.17797852,-0.73150635,-0.16290283
-0.19873047,-0.85943604,-0.26812744
-0.19140625,-1.0786743,-0.26397705
-0.16894531,-1.1362915,-0.31524658
-0.07373047,-1.2432251,-0.47247314
-0.2866211,-0.9414673,-0.39678955
0.042236328,-1.0588989,-0.1272583
-0.0041503906,-0.7432251,-0.06890869
0.040283203,-0.62872314,-0.12017822
-0.16699219,-0.8723755,-0.08013916
-0.018066406,-1.0357056,-0.04083252
-0.21508789,-1.0930786,-0.30377197
-0.43432617,-1.55719,-0.378479
0.20874023,-0.91534424,-0.36138916
-0.017578125,-0.74835205,-0.27008057
-0.15209961,-0.704895,-0.2197876
-0.09887695,-0.78131104,-0.23638916
-0.18408203,-0.9065552,-0.26983643
-0.19628906,-1.0601196,-0.30914307
-0.16699219,-1.1401978,-0.7359009
0.11303711,-1.3406372,-0.22784424
0.24365234,-0.87701416,-0.18023682
-0.041992188,-0.7974243,-0.13458252
-0.03466797,-0.6885376,-0.11456299
0.011230469,-0.8140259,-0.074035645
-0.06225586,-0.90338135,-0.06524658
-0.08666992,-1.0310669,-0.01373291
-0.110839844,-1.1167603,-0.049621582
0.25,-1.3274536,-0.43414307
-0.3244629,-1.0847778,-0.35284424
-0.14453125,-1.0022583,-0.25787354
-0.0546875,-0.80718994,-0.20587158
-0.20825195,-0.8167114,-0.1921997
-0.07446289,-0.70806885,-0.21051025
-0.1171875,-0.90167236,-0.2456665
-0.23242188,-1.1714478,-0.13702393
-0.27783203,-0.583313,-0.33477783
-0.20166016,-1.204895,-0.17437744
-0.2602539,-0.8928833,-0.15582275
-0.16113281,-0.9746704,-0.16534424
0.005859375,-0.8652954,-0.128479
-0.1237793,-1.1931763,0.039245605
-0.34594727,-0.92144775,-0.09429932
-0.27001953,-0.97052,0.027770996
-0.15405273,-0.90509033,0.0018920898
-0.25585938,-1.0762329,0.026794434
-0.33984375,-1.317688,0.034606934
0.41381836,-1.5984497,-0.5249634
0.067871094,-0.80792236,-0.41192627
-0.5019531,-1.0967407,-0.30377197
-0.048583984,-0.48638916,-0.14508057
-0.04638672,-0.598938,-0.1987915
-0.07543945,-0.9517212,-0.29864502
-0.43066406,-1.1167603,-0.24664307
-0.110839844,-1.3074341,-0.32891846
0.69311523,-1.4065552,-0.33111572
