accelX,accelY,accelZ
0.07128906,-0.9783325,-0.4048462
0.15966797,-1.1401978,-0.0491333
-0.06689453,-0.6621704,0.08660889
-0.05102539,-0.54156494,0.097351074
0.017333984,-0.737854,0.11444092
0.03149414,-1.2891235,0.13104248
-0.14111328,-1.2769165,-0.27008057
-0.25170898,-1.5427856,-0.18878174
0.19824219,-1.102356,-0.10211182
-0.1027832,-0.6951294,-0.019104004
-0.09106445,-0.5142212,-0.120910645
-0.063964844,-0.66192627,-0.10357666
-0.24121094,-1.359436,-0.046691895
-0.11254883,-1.3821411,-0.40631104
0.13256836,-1.2781372,-0.19293213
0.42944336,-1.0999146,-0.1519165
-0.16113281,-0.84552,0.04144287
-0.07836914,-0.5852661,0.07928467
-0.050048828,-0.6873169,0.061462402
0.076416016,-1.1367798,0.08465576
0.05517578,-1.3501587,-0.04840088
-0.19335938,-1.411438,-0.12945557
0.119140625,-0.95147705,-0.13043213
-0.20654297,-0.6729126,-0.012268066
-0.07714844,-0.5244751,-0.10992432
-0.08154297,-0.79571533,-0.07965088
-0.23901367,-1.548645,-0.013977051
-0.23217773,-1.3442993,-0.2979126
0.5888672,-1.1157837,-0.1296997
0.07421875,-0.9126587,0.010437012
-0.060302734,-0.74542236,0.06341553
-0.078125,-0.55792236,0.043151855
-0.13012695,-0.8550415,0.097595215
0.11206055,-1.3638306,0.26556396
-0.07421875,-1.4968872,-0.14630127
-0.2685547,-1.117981,-0.33355713
-0.018554688,-0.9204712,-0.11651611
-0.25561523,-0.5215454,-0.06085205
-0.09838867,-0.6799927,-0.09259033
-0.19873047,-0.8621216,-0.101379395
-0.24047852,-1.2747192,-0.09893799
-0.21777344,-1.5706177,-0.18341064
0.6027832,-1.0535278,-0.23980713
-0.14111328,-0.9522095,-0.19683838
-0.079589844,-0.6848755,-0.014465332
0.20239258,-1.0586548,-0.29156494
0.32055664,-0.9534302,-0.08770752
-0.3154297,-0.6836548,0.09613037
0.13452148,-0.63360596,-0.07720947
-0.047851562,-1.1231079,0.19989014
0.00390625,-1.0293579,0.101745605
0.007080078,-1.3052368,-0.022277832
0.034179688,-1.1668091,-0.15118408
0.20263672,-0.92144775,-0.16241455
-0.107177734,-0.7737427,-0.0413208
-0.088134766,-0.66290283,-0.057922363
-0.21313477,-0.79156494,-0.07696533
-0.099365234,-1.6016235,0.062927246
0.24731445,-1.173645,-0.43170166
-0.072753906,-1.1345825,-0.14215088
0.17333984,-0.8945923,-0.026672363
-0.013671875,-0.7515259,0.090270996
-0.029052734,-0.70880127,0.16766357
-0.0034179688,-0.92144775,0.14764404
0.03564453,-1.2146606,0.08416748
0.118896484,-1.2754517,-0.053771973
-0.103759766,-1.0266724,-0.117004395
-0.24121094,-0.81695557,-0.012268066
-0.012451172,-0.5112915,-0.08721924
-0.118652344,-0.753479,-0.012268066
-0.27685547,-1.1599731,-0.070129395
-0.25170898,-1.4727173,-0.24884033
0.4189453,-1.2854614,-0.26446533
0.14624023,-1.0081177,-0.15411377
-0.18481445,-0.81036377,0.07122803
-0.048339844,-0.53326416,0.01776123
-0.046142578,-0.7727661,0.09442139
0.009521484,-1.1521606,0.03656006
-0.103271484,-1.4653931,-0.045959473
-0.19897461,-1.2622681,-0.15045166
0.02734375,-1.0095825,-0.13140869
-0.15112305,-0.6765747,-0.05206299
-0.16479492,-0.5601196,-0.059631348
-0.084228516,-0.75177,-0.06085205
-0.2397461,-1.296936,-0.039123535
-0.2849121,-1.4568481,-0.27789307
0.47460938,-1.1260376,-0.30255127
0.07080078,-0.8657837,-0.19830322
-0.08666992,-0.7715454,0.043640137
-0.059326172,-0.61798096,0.08099365
-0.11987305,-0.84942627,0.14154053
0.095214844,-1.2588501,0.10345459
-0.2705078,-1.4509888,-0.15924072
-0.21801758,-1.15802,-0.17095947
0.10522461,-0.9612427,-0.09283447
-0.14013672,-0.6218872,-0.026672363
-0.16381836,-0.6152954,-0.10479736
0.07348633,-1.4085083,-0.30303955
0.14086914,-1.0645142,-0.20928955
0.027832031,-0.84625244,-0.14361572
0.00024414062,-0.7888794,0.062194824
-0.068603516,-0.548645,0.03704834
-0.059814453,-0.8740845,0.048034668
0.0075683594,-1.357727,0.21942139
0.07885742,-1.4004517,-0.1482544
-0.118652344,-1.0725708,-0.113342285
0.1652832,-0.99005127,-0.06793213
-0.09667969,-0.6135864,-0.04498291
-0.15209961,-0.6272583,-0.07208252
-0.23730469,-1.039856,-0.053771973
-0.20019531,-1.460022,-0.0569458
0.328125,-1.234436,-0.29693604
0.083740234,-1.0615845,-0.10626221
-0.044189453,-0.82818604,0.034118652
-0.0078125,-0.5952759,0.07537842
0.0014648438,-0.73272705,-0.010803223
0.037597656,-1.2522583,0.08856201
-0.16015625,-1.2835083,-0.17047119
0.05834961,-1.2466431,-0.19781494
0.032714844,-0.97052,-0.13555908
-0.12646484,-0.6709595,-0.044006348
-0.08691406,-0.6585083,-0.10235596
-0.10473633,-0.88067627,-0.02178955
-0.17236328,-1.2046509,-0.112854004
-0.19702148,-1.3430786,-0.44976807
0.13085938,-1.3233032,-0.15826416
0.38842773,-0.9902954,-0.109680176
-0.1328125,-0.69732666,0.0018920898
0.0036621094,-0.5576782,0.002380371
-0.037353516,-0.98760986,0.04852295
0.12695312,-1.250061,0.11541748
-0.18945312,-1.3013306,-0.20489502
-0.2397461,-1.1380005,-0.20343018
-0.04736328,-1.0842896,-0.12872314
-0.109375,-0.6946411,-0.07525635
-0.20727539,-0.7022095,-0.14117432
-0.047851562,-0.89068604,-0.014465332
-0.28393555,-1.1306763,-0.074279785
-0.38256836,-1.4238892,-0.12188721
0.44311523,-1.3504028,-0.28619385
-0.017333984,-0.93634033,-0.20489502
-0.083496094,-0.88067627,0.013122559
-0.018798828,-0.58917236,0.055114746
-0.033447266,-0.7798462,0.062438965
0.06323242,-1.2070923,0.13543701
0.0073242188,-1.2236938,-0.25030518
-0.22949219,-1.4138794,-0.16827393
0.19677734,-0.93829346,-0.045959473
-0.13476562,-0.6465454,-0.11456299
-0.07495117,-0.67926025,-0.14068604
-0.15527344,-0.8262329,-0.13995361
-0.22583008,-1.2398071,-0.16217041
-0.2512207,-1.2654419,-0.10601807
0.16699219,-0.9534302,-0.09649658
-0.14941406,-0.66485596,-0.05255127
-0.13500977,-0.6367798,-0.054992676
-0.16357422,-0.85357666,-0.13165283
-0.19091797,-1.4107056,-0.02520752
0.26416016,-1.3865356,-0.37530518
-0.018798828,-1.1314087,-0.16192627
0.080078125,-0.86553955,-0.020568848
-0.11767578,-0.647522,0.029724121
-0.0034179688,-0.6409302,0.0119018555
-0.00024414062,-1.003479,0.05218506
0.05493164,-1.3535767,0.18011475
0.10620117,-1.2573853,-0.3484497
-0.16503906,-1.1480103,-0.14385986
-0.21044922,-0.71099854,-0.016662598
-0.08300781,-0.64556885,-0.13922119
-0.107910156,-0.8909302,-0.09698486
-0.16064453,-1.1533813,-0.13677979
-0.16040039,-1.3023071,-0.17120361
0.55126953,-1.2693481,-0.23687744
0.122558594,-0.9702759,-0.16900635
-0.018554688,-0.7349243,-0.013244629
-0.039794922,-0.65802,0.11517334
-0.064453125,-0.7617798,0.08123779
0.0126953125,-1.0435181,0.13885498
0.024902344,-1.4414673,0.27288818
0.18359375,-1.2449341,-0.04547119
-0.046142578,-0.9561157,-0.09161377
-0.22143555,-0.75079346,-0.0647583
-0.13793945,-0.62384033,-0.04937744
-0.12915039,-0.7942505,-0.046691895
-0.17871094,-1.1384888,-0.13092041
-0.51123047,-1.5010376,-0.06964111
0.44189453,-1.1589966,-0.24957275
-0.001953125,-0.9644165,-0.017150879
-0.080322266,-0.7114868,0.06561279
-0.041015625,-0.647522,0.16229248
-0.09301758,-0.8526001,0.18377686
-0.04345703,-1.1221313,0.039733887
-0.09106445,-1.1489868,0.14593506
-0.045654297,-1.3862915,-0.012023926
-0.15039062,-0.9795532,-0.10455322
-0.20898438,-0.850647,0.051696777
-0.18017578,-0.6824341,-0.0015258789
-0.12841797,-0.7954712,0.0014038086
-0.38793945,-1.2554321,0.11590576
-0.46728516,-1.123352,-0.015197754
0.46777344,-1.1277466,-0.12310791
-0.110839844,-0.8726196,-0.011779785
-0.03149414,-0.6777954,0.08148193
-0.03564453,-0.7571411,0.0848999
-0.05126953,-1.1863403,0.011169434
-0.14672852,-1.3296509,0.18133545
0.12524414,-1.0740356,-0.10308838
0.0146484375,-0.8362427,-0.21099854
-0.122558594,-0.91119385,-0.04083252
-0.18432617,-0.7131958,-0.06817627
-0.080078125,-0.7654419,-0.058654785
-0.1887207,-1.2383423,-0.101623535
-0.41601562,-1.3816528,-0.18511963
0.36523438,-1.1404419,-0.3640747
-0.0029296875,-0.89263916,-0.06744385
-0.06567383,-0.8115845,0.097595215
-0.023925781,-0.6470337,0.093444824
-0.09838867,-0.94244385,0.11126709
0.053710938,-1.2217407,0.23065186
-0.115478516,-1.3960571,-0.11480713
-0.25463867,-1.147522,-0.13702393
-0.0026855469,-0.86920166,-0.046447754
-0.096191406,-0.7046509,-0.012512207
-0.19506836,-0.7227173,-0.02935791
-0.17529297,-1.0496216,-0.15777588
-0.19726562,-1.4136353,0.023132324
0.34594727,-1.2400513,-0.41168213
-0.10888672,-1.0093384,-0.13116455
-0.010253906,-0.8496704,-0.070373535
-0.028320312,-0.6409302,0.10028076
0.031982422,-0.69317627,0.109802246
-0.13305664,-1.1333618,0.059509277
0.06640625,-1.3521118,0.03338623
0.26000977,-1.1897583,-0.19171143
-0.022460938,-0.9146118,-0.23199463
-0.17333984,-0.73321533,-0.06549072
-0.15258789,-0.6795044,-0.082336426
-0.09350586,-0.83673096,-0.050842285
-0.36010742,-1.5322876,-0.094055176
-0.18823242,-1.3274536,-0.30010986
0.31054688,-1.0418091,-0.20245361
-0.07128906,-0.74176025,-0.05621338
-0.018066406,-0.74346924,0.112976074
-0.0715332,-0.69366455,0.1293335
-0.13061523,-1.0774536,0.20648193
0.063964844,-1.171936,0.21990967
-0.15771484,-1.482727,-0.026428223
-0.111572266,-0.9873657,-0.08062744
-0.18896484,-0.7437134,-0.027404785
-0.111816406,-0.57696533,-0.06451416
-0.23120117,-0.9475708,-0.016174316
-0.19799805,-1.078186,-0.05255127
-0.3305664,-1.4229126,-0.11627197
-0.08227539,-0.9661255,-0.29058838
0.04248047,-0.9143677,-0.058166504
-0.1159668,-0.72052,0.051208496
-0.111328125,-0.73638916,0.041931152
0.12768555,-1.0794067,0.047058105
0.017822266,-1.3745728,0.15301514
0.17236328,-1.1868286,-0.08721924
-0.2763672,-0.8826294,-0.10406494
-0.2548828,-0.92193604,-0.05328369
-0.15942383,-0.67926025,-0.003479004
-0.05493164,-0.79644775,-0.046936035
-0.27539062,-1.1109009,-0.0134887695
-0.15698242,-1.2478638,-0.13604736
0.38012695,-1.2532349,-0.21832275
0.14233398,-0.881897,-0.18365479
-0.07055664,-0.80914307,-0.006652832
-0.0073242188,-0.72003174,0.055114746
-0.064208984,-0.8345337,0.018981934
-0.039794922,-1.09552,0.04534912
-0.009765625,-1.3091431,0.09442139
0.12646484,-1.31427,-0.008850098
-0.12915039,-0.8152466,-0.17999268
-0.19458008,-0.9378052,-0.06011963
-0.18041992,-0.6392212,-0.07281494
-0.06616211,-0.78741455,-0.10357666
-0.2109375,-1.1704712,-0.14630127
-0.15551758,-1.4624634,-0.3718872
0.47680664,-1.2781372,-0.13067627
0.12915039,-0.7354126,-0.17095947
-0.1328125,-0.68341064,-0.03668213
0.0715332,-0.68951416,0.0446167
-0.09106445,-0.97442627,0.062927246
0.079589844,-1.1643677,0.105407715
-0.016601562,-1.3311157,-0.24420166
-0.41186523,-1.0862427,-0.26739502
-0.060546875,-1.2649536,-0.14678955
-0.11303711,-0.67193604,-0.062072754
-0.12719727,-0.6345825,-0.0947876
-0.15527344,-0.88287354,-0.08404541
-0.032226562,-1.4170532,-0.0056762695
0.34155273,-1.270813,-0.24517822
-0.2211914,-0.9483032,-0.1416626
0.0063476562,-0.8755493,0.020446777
-0.056640625,-0.61383057,0.06390381
-0.041503906,-0.76934814,0.12567139
0.060302734,-1.0789185,0.117126465
0.014892578,-1.208313,0.12835693
0.028320312,-1.3640747,0.08856201
0.1496582,-0.7329712,-0.18121338
-0.19458008,-0.913147,-0.058898926
-0.23999023,-0.70391846,-0.08404541
-0.12426758,-0.7835083,-0.1038208
-0.21850586,-1.0567017,-0.07574463
-0.32885742,-1.6380005,-0.14263916
0.39379883,-1.236145,-0.09210205
0.061279297,-0.64849854,-0.19049072
0.03857422,-0.7251587,0.028015137
0.057128906,-0.76275635,-0.053527832
-0.10473633,-0.8543091,0.027282715
-0.1616211,-0.90582275,0.19036865
0.03540039,-0.925354,0.15228271
0.08642578,-1.2996216,0.14886475
-0.020996094,-1.3862915,-0.032287598
-0.25561523,-0.84942627,-0.21148682
-0.32373047,-0.95684814,-0.0947876
-0.056640625,-0.61187744,-0.14971924
-0.13256836,-0.7769165,-0.07965088
-0.23242188,-0.97491455,-0.10211182
-0.22338867,-1.4866333,-0.038635254
0.32763672,-1.3215942,-0.34503174
-0.03540039,-0.94073486,-0.25201416
0.072021484,-0.84381104,-0.0869751
-0.043945312,-0.62457275,-0.016906738
-0.12670898,-0.6843872,0.04901123
0.029785156,-1.0532837,0.039978027
0.045410156,-1.3914185,0.11517334
0.2800293,-1.2727661,-0.18267822
-0.30371094,-0.87384033,-0.18341064
-0.1394043,-1.0186157,-0.109191895
-0.13232422,-0.645813,-0.042053223
-0.15234375,-0.661438,-0.07574463
-0.21923828,-1.02594,-0.09844971
-0.24291992,-1.492981,0.039001465
0.5317383,-1.2805786,-0.31988525
0.038085938,-0.94244385,-0.17926025
-0.013427734,-0.80841064,-0.0015258789
-0.0024414062,-0.65338135,0.053894043
-0.099365234,-0.79937744,0.11175537
0.021240234,-1.1021118,0.054626465
0.044189453,-1.1477661,0.057556152
0.13232422,-1.2871704,-0.13580322
0.033935547,-0.9590454,-0.13214111
-0.2253418,-0.7402954,-0.10406494
-0.05834961,-0.62872314,-0.10675049
-0.14160156,-0.8274536,-0.074523926
-0.30541992,-1.1660767,-0.11798096
-0.3515625,-1.4107056,-0.1873169
0.73095703,-1.3062134,-0.20953369
0.15527344,-0.847229,-0.20440674
-0.061767578,-0.77178955,-0.040100098
0.028564453,-0.62164307,-0.011047363
-0.011962891,-0.87677,0.0524292
-0.0769043,-1.2774048,0.02947998
-0.009033203,-1.378479,-0.06915283
-0.115234375,-1.1397095,-0.19171143
0.123535156,-1.1096802,-0.0635376
-0.21972656,-0.6189575,-0.04498291
-0.1003418,-0.5762329,-0.10748291
-0.08642578,-0.87506104,0.046081543
-0.4350586,-1.5264282,0.1227417
-0.28320312,-1.4221802,-0.38165283
-0.3173828,-1.0796509,-0.32403564
0.46264648,-1.3831177,-0.19732666
0.083984375,-0.8538208,-0.23321533
-0.15161133,-0.86383057,-0.06695557
-0.015625,-0.60479736,0.005065918
-0.05053711,-0.6477661,0.036071777
0.051513672,-0.92926025,0.012390137
-0.107910156,-1.5127563,0.12322998
0.052001953,-1.5779419,-0.2852173
-0.36376953,-0.98443604,-0.20172119
0.0126953125,-0.9915161,-0.082336426
-0.06298828,-0.5869751,-0.07574463
-0.18115234,-0.69122314,-0.07672119
-0.18408203,-0.972229,0.008972168
0.0068359375,-1.236145,-0.07696533
0.19335938,-1.3425903,-0.3550415
