accelX,accelY,accelZ
-0.030273438,-0.9890747,0.1852417
-0.025390625,-0.9885864,0.19354248
-0.0390625,-0.98687744,0.18475342
-0.04296875,-0.9690552,0.16864014
-0.057128906,-1.0205688,0.14471436
-0.06518555,-0.9898071,0.15179443
-0.052734375,-1.000061,0.15252686
-0.017578125,-0.9963989,0.14422607
0.011230469,-0.9973755,0.19085693
0.13598633,-0.9651489,0.22161865
0.00048828125,-1.0178833,0.29193115
-0.023925781,-1.0466919,0.2819214
0.018798828,-0.90411377,0.22454834
0.11743164,-0.96417236,0.24212646
0.04272461,-0.9265747,0.23553467
0.08544922,-0.9483032,0.2062378
-0.052246094,-0.942688,0.21795654
0.013916016,-1.0574341,0.25238037
0.30126953,-1.3433228,0.15667725
0.07714844,-1.2734985,-0.04083252
0.21582031,-1.0386353,-0.073791504
0.0036621094,-0.9993286,-0.21173096
0.07739258,-0.9480591,0.11175537
-0.008056641,-0.58917236,0.0048217773
0.0036621094,-0.70758057,-0.038635254
0.17041016,-0.98883057,0.06781006
-0.13793945,-1.1177368,0.050476074
0.020507812,-1.1694946,0.10101318
0.09423828,-1.3196411,-0.14556885
0.39501953,-1.0488892,0.038757324
0.2607422,-0.72662354,0.03729248
0.03955078,-1.0654907,0.20111084
0.115722656,-0.690979,0.07220459
-0.009033203,-0.6663208,0.11932373
0.018066406,-0.7918091,0.15008545
0.107666016,-0.9927368,0.12762451
-0.041015625,-1.3086548,0.19696045
0.21801758,-1.505188,0.020446777
-0.10083008,-1.0957642,0.07489014
0.025634766,-1.1279907,0.03265381
0.20166016,-1.3814087,0.11004639
0.23730469,-1.3018188,0.05316162
0.36816406,-0.82232666,0.0028686523
-0.02368164,-0.9338989,0.18719482
0.14916992,-0.6709595,0.039733887
0.022705078,-0.6692505,0.1539917
-0.030517578,-0.7632446,0.18548584
0.12548828,-1.1738892,0.24993896
-0.12841797,-1.2251587,0.25726318
0.12695312,-1.2979126,0.16766357
0.0087890625,-0.5598755,0.06561279
-0.10229492,-0.41241455,-0.050842285
0.22143555,-1.201477,-0.013000488
-0.10839844,-1.3916626,0.14764404
-0.026611328,-1.1138306,-0.11065674
0.40771484,-1.4453735,0.024108887
0.3395996,-0.80010986,0.008972168
0.055664062,-0.9053345,0.15081787
0.0012207031,-0.6453247,0.0040893555
0.061523438,-0.73321533,0.059265137
0.100097656,-0.8897095,0.16351318
0.08251953,-1.0484009,0.22576904
0.011474609,-1.0986938,0.15960693
0.17089844,-1.5352173,0.23236084
0.06518555,-0.9522095,-0.11627197
0.20874023,-0.97735596,0.04925537
-0.09326172,-0.8916626,0.07293701
0.08203125,-0.598938,0.055847168
-0.009277344,-0.80914307,0.039245605
-0.055664062,-1.0332642,0.036071777
0.068847656,-1.3335571,0.11224365
-0.018554688,-1.2632446,-0.04888916
0.31054688,-1.1416626,0.03265381
0.31347656,-0.8970337,0.08465576
-0.0031738281,-1.135315,0.14984131
0.046142578,-1.484436,-0.0012817383
0.30029297,-0.9981079,0.07928467
0.15429688,-1.0874634,0.2033081
-0.00024414062,-0.8115845,0.13909912
-0.032714844,-0.66192627,0.15301514
-0.05029297,-0.7463989,0.18499756
-0.043945312,-0.8286743,0.08074951
-0.14770508,-1.1275024,0.11224365
-0.05126953,-1.2073364,0.20379639
0.1743164,-1.2852173,0.11419678
0.08886719,-1.1917114,0.007751465
0.4025879,-0.8130493,0.09686279
-0.103271484,-0.93414307,0.16131592
0.01977539,-1.4094849,-0.024963379
0.3491211,-1.1160278,0.10638428
0.39208984,-0.93927,0.07904053
-0.10986328,-1.1174927,0.21429443
0.22509766,-0.61016846,0.09613037
0.037597656,-0.6050415,0.14105225
-0.041748047,-0.7102661,0.08905029
0.32592773,-1.0181274,0.21209717
-0.09375,-1.3181763,0.062683105
0.15063477,-1.3587036,0.07342529
0.1940918,-0.83477783,-0.15484619
0.1303711,-1.0825806,0.013366699
0.08203125,-0.8960571,0.0006713867
0.06591797,-0.7324829,-0.034729004
0.029785156,-0.8665161,0.022888184
0.034423828,-0.98321533,0.022644043
-0.064697266,-1.1082153,0.025817871
0.43725586,-1.3567505,0.10321045
0.29101562,-1.0664673,0.05657959
0.19311523,-0.84820557,0.06390381
-0.018310547,-1.0200806,0.15447998
0.2626953,-0.70880127,0.11053467
0.03173828,-0.8286743,0.13934326
0.038330078,-0.8262329,0.14666748
0.080078125,-1.0271606,0.13885498
0.048583984,-1.2913208,0.057556152
0.31884766,-1.0691528,-0.066223145
0.067871094,-1.0733032,-0.081848145
0.15209961,-0.93048096,-0.074035645
-0.015136719,-1.0130005,0.14324951
0.08618164,-0.6272583,0.01727295
-0.05908203,-0.86602783,0.054138184
-0.0056152344,-0.90167236,0.04559326
0.064208984,-1.2434692,-0.12994385
0.38378906,-1.3196411,0.062927246
0.42504883,-0.9065552,-0.094055176
0.13549805,-1.1333618,0.16522217
0.1237793,-0.8296509,0.005554199
0.12817383,-0.7178345,0.112976074
-0.041992188,-0.7686157,0.07220459
0.10644531,-0.9014282,0.10614014
0.03466797,-1.1934204,0.070251465
0.2265625,-1.190979,-0.042297363
0.014160156,-1.1101685,-0.07647705
0.14233398,-0.8977661,-0.09893799
-0.04272461,-0.94903564,0.05267334
0.037353516,-0.67803955,0.04119873
-0.03955078,-0.73223877,-0.013244629
-0.020507812,-1.0942993,0.018249512
-0.0043945312,-1.1455688,0.015319824
0.16015625,-1.4087524,0.01361084
0.28881836,-0.95440674,-0.022277832
0.3232422,-1.0071411,0.15716553
0.001953125,-0.8875122,0.07879639
-0.0087890625,-0.6470337,0.0680542
0.10913086,-0.65875244,0.109802246
0.07299805,-0.95758057,0.2033081
-0.021240234,-1.0588989,-0.013977051
0.06933594,-1.3294067,0.015319824
0.5332031,-1.2710571,0.07977295
0.17236328,-0.8101196,-0.11236572
0.07080078,-1.1084595,0.23529053
0.15356445,-0.7061157,0.058532715
0.07470703,-0.67852783,0.13763428
-0.00390625,-0.86065674,0.16986084
0.119384766,-0.9553833,0.15667725
0.08666992,-1.411438,0.19378662
0.26049805,-1.1589966,0.022644043
0.12548828,-0.850647,-0.105285645
0.15551758,-0.9224243,0.109313965
0.010009766,-0.8101196,-0.018371582
0.1105957,-0.70147705,0.0036010742
0.020263672,-0.96466064,0.055114746
0.04272461,-0.95635986,0.08099365
-0.10131836,-1.2861938,0.05999756
0.1899414,-1.3521118,0.039245605
0.19824219,-1.0298462,0.0067749023
0.3383789,-0.8184204,0.05999756
-0.08520508,-0.9871216,0.18890381
0.20922852,-0.7112427,0.07952881
-0.0126953125,-0.8855591,0.18572998
0.010009766,-0.7852173,0.21478271
-0.10595703,-0.8154907,0.26849365
0.017578125,-1.0623169,0.31195068
0.059570312,-0.53448486,-0.09844971
0.013671875,-0.835022,0.0099487305
-0.038330078,-1.0261841,0.0099487305
0.026367188,-1.3076782,-0.021057129
0.25512695,-1.4876099,0.016540527
0.26904297,-0.95098877,-0.082092285
0.4177246,-0.81036377,0.16864014
-0.08666992,-0.9116821,0.06317139
0.06713867,-0.52227783,0.035095215
0.026855469,-0.91900635,0.16009521
0.099609375,-1.0249634,0.06951904
0.036376953,-1.1416626,0.105407715
0.32470703,-1.4512329,-0.1506958
0.16381836,-1.0130005,-0.13092041
0.045410156,-0.95635986,-0.07525635
0.020751953,-0.7901001,0.09100342
-0.056396484,-0.68536377,-0.04815674
0.0847168,-0.85723877,0.14056396
-0.05859375,-1.0977173,0.1593628
0.092285156,-1.2354126,-0.036193848
0.55493164,-1.4153442,0.22625732
0.23461914,-0.800354,0.0016479492
0.025390625,-1.154602,0.24554443
0.068359375,-0.6602173,0.07171631
-0.068359375,-0.6362915,0.113708496
0.05078125,-0.9602661,0.22991943
0.038085938,-1.1484985,0.26019287
0.22167969,-1.4119263,0.1149292
0.20800781,-1.1187134,-0.07305908
0.07739258,-0.87213135,-0.124816895
-0.0041503906,-1.00177,0.06732178
0.059814453,-0.7439575,0.054138184
0.033203125,-0.8164673,0.026062012
0.012939453,-0.87677,0.03729248
0.0703125,-1.0222778,0.11444092
0.075927734,-1.3457642,0.09906006
0.3466797,-1.2012329,0.09442139
0.37353516,-0.8792114,0.039733887
-0.046875,-1.0420532,0.20526123
0.17016602,-0.71466064,0.08685303
0.02709961,-0.74224854,0.16204834
-0.044677734,-0.91363525,0.21356201
0.11621094,-0.9241333,0.21478271
-0.015136719,-1.2903442,0.17547607
0.37060547,-1.2297974,0.08074951
0.008544922,-0.93096924,-0.09429932
0.0925293,-1.0144653,0.04168701
-0.020751953,-0.8279419,0.08685303
0.08886719,-0.69903564,0.07489014
0.021484375,-0.82940674,0.0836792
-0.06323242,-1.0488892,0.11517334
0.021728516,-1.2454224,0.09661865
0.43920898,-1.2905884,0.14886475
0.091308594,-1.0789185,-0.041809082
0.3942871,-0.88897705,0.06463623
0.12011719,-0.94195557,0.08929443
0.020751953,-0.70098877,0.02532959
0.15136719,-0.7293091,0.105651855
0.08276367,-0.9104614,0.16156006
-0.0024414062,-0.96881104,0.0927124
0.20654297,-1.0960083,0.0079956055
0.40307617,-0.8442993,0.1083374
-0.05859375,-0.9883423,0.17449951
0.17236328,-0.77349854,0.14007568
0.0146484375,-0.73565674,0.14227295
0.043945312,-0.84698486,0.15325928
0.08691406,-0.99420166,0.19525146
0.07763672,-1.2627563,0.2489624
0.17333984,-1.2439575,0.06414795
0.1303711,-0.90753174,-0.14434814
0.15258789,-1.0427856,0.10467529
-0.03515625,-0.7764282,0.017028809
0.08959961,-0.71661377,0.039489746
-0.04296875,-0.83721924,0.008728027
0.015625,-0.9727173,0.070495605
-0.1381836,-1.2175903,0.008972168
0.057373047,-1.2966919,-0.013977051
0.3334961,-1.1326294,0.039489746
0.20678711,-0.77130127,0.09197998
-0.055419922,-0.9463501,0.1437378
0.14428711,-0.7769165,0.08026123
0.04638672,-0.9663696,0.19891357
-0.119628906,-1.229065,0.20281982
0.013427734,-1.3587036,-0.05670166
0.36645508,-1.1865845,-0.011779785
0.4128418,-0.80303955,-0.050109863
0.0625,-1.1087036,0.04071045
-0.036621094,-0.79278564,0.027282715
0.029296875,-0.69903564,-0.047668457
0.051757812,-0.9133911,0.11102295
-0.025146484,-0.9085083,0.07977295
-0.07836914,-1.2190552,0.11663818
0.3955078,-1.5161743,0.13397217
0.19311523,-1.0076294,-0.004699707
0.36523438,-0.97857666,0.17230225
-0.044677734,-0.85357666,0.19476318
0.23120117,-0.6428833,0.15228271
-0.08862305,-0.80059814,0.20013428
0.07714844,-0.8584595,0.20184326
0.099609375,-0.9902954,0.246521
0.026123047,-1.367981,0.23895264
0.07861328,-1.3015747,0.14007568
0.14086914,-0.86138916,0.00970459
0.09277344,-0.9793091,0.073913574
-0.055908203,-0.8447876,0.097595215
0.107421875,-0.6917114,0.028015137
-0.025390625,-0.86383057,0.09246826
-0.1171875,-0.98223877,0.11663818
0.03881836,-1.2105103,0.14984131
0.28515625,-1.3963013,0.1461792
0.3322754,-0.8838501,-0.038146973
0.18847656,-1.039856,0.18621826
0.04248047,-0.9038696,0.12591553
0.08666992,-0.7324829,0.19989014
-0.026367188,-0.8010864,0.21990967
0.05859375,-0.9026489,0.26483154
-0.025390625,-1.0457153,0.29632568
0.19677734,-1.3062134,0.22381592
0.09350586,-1.253479,0.09710693
0.18188477,-0.90997314,-0.038879395
-0.041748047,-0.98809814,0.062438965
0.06640625,-0.85601807,0.061706543
-0.017089844,-0.7127075,0.09442139
0.07470703,-0.829895,0.12860107
-0.109375,-1.0950317,0.09637451
0.19750977,-1.1680298,-0.07623291
0.3725586,-1.5003052,0.2855835
0.39038086,-0.84576416,-0.10870361
0.06274414,-1.1126099,0.23895264
0.1171875,-0.6633911,0.055358887
0.09667969,-0.6992798,0.16473389
0.17993164,-1.0515747,-0.009094238
-0.22973633,-1.0623169,-0.20831299
0.23535156,-1.4695435,-0.053527832
0.40063477,-1.0552368,-0.011779785
0.40429688,-0.82891846,-0.14605713
0.047607422,-1.0361938,0.13250732
0.21362305,-0.7139282,0.06536865
0.099365234,-1.2473755,-0.0029907227
0.5205078,-0.8726196,0.1449585
0.07739258,-0.99786377,0.16033936
0.09887695,-0.81134033,0.07562256
0.059814453,-0.72003174,0.15692139
0.0029296875,-0.80303955,0.16156006
0.13793945,-0.9224243,0.22503662
-0.024658203,-1.3533325,0.1564331
0.064697266,-0.7925415,0.030456543
-0.020263672,-0.7163696,-0.08380127
0.071777344,-0.77716064,0.03656006
0.02319336,-1.0205688,0.0072631836
0.063964844,-1.3086548,0.074401855
0.20166016,-1.5708618,-0.031799316
0.16210938,-0.8833618,-0.16265869
0.3383789,-0.866272,0.10784912
-0.10424805,-0.8648071,0.05682373
0.14208984,-0.69122314,0.13739014
0.0063476562,-0.7620239,0.14471436
-0.08862305,-0.9302368,0.15765381
-0.021728516,-1.1985474,0.2633667
0.14013672,-1.2859497,0.13250732
-0.03173828,-0.58380127,-0.04058838
0.044677734,-0.9089966,0.04144287
0.022216797,-0.94732666,0.035339355
0.14477539,-1.3347778,0.0048217773
0.31445312,-1.3616333,0.0446167
0.18530273,-0.94781494,0.051696777
0.37646484,-0.75201416,0.053649902
-0.044921875,-1.0476685,0.14569092
0.14086914,-0.77301025,0.124938965
0.048828125,-0.70318604,0.097595215
-0.04711914,-1.0464478,0.2616577
-0.014892578,-0.98101807,0.051696777
0.21801758,-1.546936,0.18670654
0.18969727,-1.076477,-0.10333252
0.055664062,-0.9265747,-0.066223145
-0.11279297,-0.97540283,0.07635498
0.05029297,-0.673645,0.04901123
0.02368164,-0.80914307,0.12713623
-0.07788086,-0.9541626,0.117370605
-0.083496094,-1.1323853,0.16351318
0.22802734,-1.3057251,0.049987793
0.27368164,-1.1082153,0.03363037
0.42944336,-0.8911743,0.07611084
-0.092285156,-1.0288696,0.21307373
0.15014648,-0.6091919,0.06976318
0.0009765625,-0.7229614,0.15545654
0.055419922,-0.940979,0.28778076
-0.061523438,-1.0078735,0.2374878
0.33422852,-1.4036255,0.09222412
0.0061035156,-0.6069946,0.06072998
0.033935547,-0.7593384,0.031188965
-0.09277344,-0.8897095,0.018737793
-0.011474609,-1.1494751,0.038513184
0.18945312,-1.2693481,-0.09625244
0.35986328,-1.3279419,0.13006592
0.34692383,-0.7061157,-0.18023682
0.04296875,-1.177063,0.101257324
0.11669922,-0.75738525,-0.0071411133
0.12133789,-0.7149048,0.1239624
-0.0024414062,-0.7732544,0.06707764
0.13378906,-1.0523071,0.12908936
0.029541016,-1.1138306,-0.019592285
0.31030273,-1.3428345,0.042175293
0.13354492,-0.95928955,-0.1482544
0.21362305,-0.98565674,0.046081543
-0.15356445,-0.8718872,-0.059143066
0.18041992,-0.7473755,0.0680542
-0.027832031,-0.80255127,0.051940918
