accelX,accelY,accelZ
0.46679688,-0.9727173,-0.11480713
0.5319824,-0.9902954,-0.116760254
0.47509766,-0.9627075,-0.13604736
0.66430664,-1.1760864,-0.082092285
0.33496094,-0.95562744,-0.11529541
0.19897461,-1.0281372,0.035827637
0.16015625,-0.94000244,0.074157715
0.13647461,-0.99957275,0.11199951
0.1394043,-1.0689087,0.20257568
0.0793457,-0.991272,0.17572021
0.055664062,-0.97662354,0.14984131
0.11254883,-1.0110474,0.17376709
0.059814453,-0.9788208,0.17596436
0.07446289,-0.98321533,0.16204834
0.06347656,-0.98638916,0.14520264
0.028076172,-0.9937134,0.14666748
0.048339844,-0.9956665,0.15252686
0.04345703,-1.0029907,0.16595459
0.080566406,-0.98223877,0.15057373
0.09008789,-0.9741821,0.1408081
0.107421875,-0.973938,0.121032715
0.13305664,-0.96881104,0.10394287
0.23852539,-0.9727173,0.07684326
0.3720703,-1.1511841,0.019226074
0.63183594,-0.96588135,-0.27667236
0.5720215,-0.94732666,-0.26690674
0.5708008,-0.909729,-0.21099854
0.52685547,-0.927063,-0.18902588
0.4399414,-0.93463135,-0.14801025
0.39819336,-0.96221924,-0.09844971
0.27075195,-0.9487915,-0.026916504
0.19384766,-0.8496704,-0.0020141602
0.140625,-0.8381958,0.070251465
0.15527344,-0.81207275,0.13153076
0.10595703,-0.8118286,0.09124756
0.01586914,-0.79522705,0.12591553
0.008056641,-0.9221802,0.22723389
-0.10473633,-0.99420166,0.24822998
0.0053710938,-0.9663696,0.2189331
-0.023925781,-0.97052,0.20574951
-0.09057617,-1.0137329,0.26727295
0.0026855469,-0.9841919,0.19940186
0.03564453,-0.98809814,0.18719482
0.06689453,-0.9956665,0.18963623
0.06616211,-0.96881104,0.15692139
0.0793457,-0.94537354,0.15179443
0.032958984,-0.9976196,0.18206787
-0.025146484,-0.9558716,0.23236084
-0.001953125,-0.92315674,0.29193115
0.02758789,-0.92633057,0.30023193
0.064208984,-1.0066528,0.31756592
0.041259766,-0.9956665,0.26971436
0.26831055,-1.1655884,0.2477417
0.030517578,-0.91534424,-0.08843994
0.3125,-1.1182251,-0.023986816
0.1743164,-0.94781494,-0.0115356445
0.18579102,-0.88067627,-0.0647583
0.18847656,-0.8550415,-0.105773926
0.27319336,-0.7632446,-0.0947876
0.37817383,-0.78302,-0.06817627
0.33618164,-0.6987915,-0.30596924
0.36938477,-0.7190552,-0.15777588
0.52246094,-0.6314087,-0.23345947
0.48754883,-0.614563,-0.42803955
0.62231445,-0.6543579,-0.5083618
0.5847168,-0.6543579,-0.49395752
0.72143555,-0.51885986,-0.5249634
0.75024414,-0.37652588,-0.5901489
0.7565918,-0.40411377,-0.59747314
0.92163086,-0.3591919,-0.67388916
0.7114258,-0.4102173,-0.57525635
0.7727051,-0.5142212,-0.53375244
0.79907227,-0.5991821,-0.41314697
0.75683594,-0.630188,-0.34747314
0.7314453,-0.6860962,-0.14068604
0.81469727,-0.78375244,-0.14263916
0.5534668,-0.7815552,-0.08380127
0.45092773,-0.725647,-0.027160645
0.8757324,-1.0811157,-0.085998535
0.049072266,-0.8538208,0.05731201
0.19189453,-0.92510986,0.24407959
0.28393555,-1.107727,0.26678467
0.099853516,-0.9612427,0.23846436
-0.0925293,-0.98516846,0.27557373
-0.053222656,-1.0078735,0.2880249
-0.10229492,-0.95513916,0.3690796
-0.24145508,-0.9031372,0.35662842
-0.07910156,-0.8994751,0.35662842
-0.24023438,-0.80474854,0.24310303
-0.18164062,-0.9143677,0.2296753
-0.19873047,-0.8257446,0.04095459
-0.24072266,-0.8999634,0.16937256
-0.38232422,-0.7883911,0.3217163
-0.45825195,-0.76641846,0.38275146
-0.6340332,-0.75128174,0.48284912
-0.6743164,-0.5623169,0.61883545
-0.60791016,-0.40997314,0.7267456
-0.6838379,-0.32061768,0.66082764
-1.3823242,-0.3538208,0.5321655
-0.7841797,0.07171631,0.5338745
-0.7770996,0.048034668,0.6300659
-0.63134766,-0.00030517578,0.5717163
-0.7529297,-0.022766113,0.55267334
-0.77905273,-0.061828613,0.62786865
-0.81884766,-0.055480957,0.5824585
-0.82299805,-0.06939697,0.5790405
-0.72924805,0.04437256,0.5512085
-0.85302734,-0.07476807,0.6281128
-0.828125,-0.054260254,0.5787964
-0.890625,-0.06304932,0.62786865
-0.8305664,-0.038391113,0.59295654
-0.8601074,-0.06915283,0.607605
-0.8496094,-0.055480957,0.6088257
-0.85791016,-0.051330566,0.6107788
-0.8486328,-0.061584473,0.59173584
-0.8425293,-0.0713501,0.607605
-0.85424805,-0.06427002,0.6161499
-0.8293457,-0.054016113,0.5951538
-0.8166504,-0.05206299,0.6066284
-0.82373047,-0.057434082,0.6210327
-0.8132324,-0.046203613,0.664978
-0.8432617,-0.038635254,0.6754761
-0.97265625,-0.013000488,0.70526123
-0.7915039,-0.18389893,0.7868042
-0.75024414,-0.16314697,0.65740967
-0.76171875,-0.37701416,0.73724365
-0.81103516,-0.3875122,0.59490967
-0.6936035,-0.39434814,0.5734253
-0.72094727,-0.41070557,0.5429077
-0.67333984,-0.5027466,0.56658936
-0.50097656,-0.55718994,0.5570679
-0.5529785,-0.5549927,0.4491577
-0.42041016,-0.678772,0.44989014
-0.3293457,-0.80303955,0.5648804
-0.28515625,-0.7715454,0.5084839
-0.46240234,-0.7883911,0.42279053
-0.37963867,-0.8418579,0.3937378
-0.35473633,-0.89068604,0.27850342
-0.25585938,-0.8599243,0.168396
-0.15112305,-0.8130493,0.1083374
-0.3486328,-0.9678345,0.3944702
-0.3479004,-1.0332642,0.34002686
0.01928711,-0.9151001,0.25091553
-0.17504883,-1.0137329,0.34002686
-0.040527344,-1.0205688,0.215271
0.049072266,-1.0618286,0.2633667
0.119384766,-1.0496216,0.2230835
0.0546875,-0.9951782,0.27801514
-0.07446289,-1.0581665,0.36419678
0.14526367,-0.90509033,0.05633545
0.0053710938,-1.232727,0.35687256
0.6044922,-0.5803833,-0.29840088
0.3166504,-0.8567505,-0.17144775
0.35864258,-0.85650635,-0.24273682
0.33520508,-0.91241455,-0.074523926
0.39379883,-1.0237427,0.15130615
0.16845703,-1.0044556,0.12420654
0.21948242,-0.84332275,0.21697998
0.24121094,-0.7554321,0.117126465
0.5192871,-0.75567627,-0.016906738
0.63623047,-1.0916138,-0.12872314
0.66552734,-0.9417114,-0.25177002
0.6936035,-1.017395,-0.26690674
0.9499512,-0.9734497,-0.37652588
0.87475586,-0.7036743,-0.45855713
0.6916504,-0.57891846,-0.53302
0.7993164,-0.49664307,-0.50128174
0.76464844,-0.6362915,-0.39605713
0.71875,-0.6157837,-0.43536377
0.64868164,-0.5742798,-0.23858643
0.62939453,-0.61968994,-0.15631104
0.5673828,-0.58843994,-0.13580322
0.4963379,-0.611145,-0.08282471
0.3564453,-0.6240845,0.041931152
0.29467773,-0.63116455,0.0004272461
0.22949219,-0.8208618,-0.009338379
0.14697266,-0.93414307,0.047302246
-0.011474609,-1.0215454,0.17645264
0.21801758,-1.0159302,-0.039611816
-0.02758789,-0.9841919,0.08734131
-0.045410156,-0.9768677,0.15618896
-0.015136719,-1.0628052,0.20037842
-0.022216797,-0.9500122,0.15765381
-0.005126953,-0.91778564,0.022399902
0.14794922,-1.0562134,0.062683105
-0.07373047,-1.0479126,0.13031006
-0.08129883,-1.0203247,-0.028869629
-0.029052734,-1.0596313,-0.043273926
-0.061767578,-0.9927368,-0.11187744
0.103027344,-0.9480591,-0.17828369
0.0078125,-1.1636353,0.2086792
0.15429688,-1.0413208,0.27191162
0.024169922,-0.8792114,0.04901123
-0.17236328,-0.82110596,0.039001465
0.38867188,-1.303772,-0.21783447
-0.26123047,-1.1609497,0.23822021
-0.19824219,-0.79815674,-0.20074463
0.019042969,-1.0735474,-0.12017822
0.13574219,-1.006897,0.15301514
-0.14013672,-1.0413208,-0.009094238
-0.1940918,-1.0147095,0.15814209
0.12451172,-0.9636841,0.0028686523
-0.34057617,-0.82525635,0.06341553
0.60302734,-1.378479,-0.20123291
-0.43286133,-0.91729736,-0.044006348
-0.16064453,-0.94537354,-0.1428833
0.17700195,-1.0151978,-0.10723877
-0.043701172,-1.0164185,0.19940186
-0.08105469,-1.1592407,0.13275146
-0.075683594,-0.8340454,0.1317749
-0.04736328,-0.9541626,0.25506592
0.021972656,-1.1790161,-0.16900635
-0.21044922,-0.94488525,0.018249512
-0.14477539,-0.97076416,-0.03765869
-0.08984375,-1.0007935,-0.04449463
0.1784668,-1.1831665,0.070251465
0.11206055,-0.8184204,0.035583496
0.07299805,-1.1504517,0.33807373
-0.01586914,-0.8501587,0.038269043
0.046875,-0.9404907,0.28533936
-0.27661133,-1.0952759,-0.2210083
0.11254883,-1.0325317,-0.035461426
-0.2397461,-1.045227,0.117370605
-0.09765625,-0.84625244,-0.25079346
0.3515625,-1.2410278,0.29315186
-0.061523438,-0.9143677,-0.066467285
-0.025390625,-1.0593872,0.34197998
-0.07543945,-0.9104614,0.018981934
0.076660156,-0.96661377,0.18988037
-0.1574707,-1.0982056,-0.010803223
0.2919922,-0.9133911,-0.25616455
-0.045166016,-1.1809692,0.28118896
0.023925781,-0.9248657,-0.049865723
-0.1430664,-1.0357056,-0.0056762695
-0.0034179688,-0.9927368,0.04119873
0.16259766,-1.1016235,0.246521
0.13916016,-1.0723267,0.2526245
0.19213867,-0.92852783,0.25897217
0.17749023,-0.87579346,0.121276855
0.08300781,-1.2122192,0.19500732
0.059570312,-0.87506104,0.15081787
-0.0048828125,-0.95196533,0.20770264
0.001953125,-0.9824829,0.20697021
-0.015380859,-0.99346924,0.16522217
0.0073242188,-0.9546509,0.16009521
0.055664062,-1.0859985,0.22894287
-0.06689453,-0.958313,0.09564209
0.020996094,-1.0005493,0.066833496
-0.038085938,-1.0005493,0.039733887
0.20092773,-1.1819458,0.20233154
0.17456055,-0.8994751,-0.08282471
0.05419922,-1.0073853,0.13983154
0.041992188,-0.9456177,0.1618042
0.18676758,-0.96588135,0.1876831
0.14746094,-0.9487915,0.066345215
0.061035156,-1.0491333,0.08831787
-0.05859375,-1.1904907,0.14569092
0.049316406,-0.87823486,-0.03692627
0.078125,-0.9937134,0.006286621
0.039794922,-1.0159302,0.016784668
0.15454102,-0.9663696,0.13641357
0.15258789,-0.93951416,0.18133545
0.13134766,-0.9649048,0.21820068
0.2788086,-0.9299927,0.20355225
0.12524414,-1.1729126,0.03387451
-0.095214844,-0.76275635,-0.012268066
0.033691406,-1.1763306,0.18914795
-0.012939453,-0.9483032,0.06732178
0.10644531,-1.008606,0.11126709
-0.0012207031,-0.9536743,0.01361084
0.25805664,-1.0881958,0.33099365
0.079833984,-0.93096924,0.19110107
0.13452148,-0.9644165,0.34075928
0.19946289,-0.8904419,0.3156128
0.21899414,-0.9414673,0.24310303
0.06542969,-1.0654907,0.24066162
0.0034179688,-0.9807739,0.14935303
0.026611328,-1.0576782,0.1864624
-0.042236328,-0.92437744,-0.004211426
0.021484375,-1.0357056,0.049743652
0.19824219,-1.0747681,0.22235107
0.12524414,-0.96417236,0.24871826
0.15917969,-0.9631958,0.21429443
0.15722656,-0.9561157,0.25628662
0.21362305,-0.93096924,0.20501709
0.2861328,-1.1001587,0.05682373
-0.21435547,-0.77227783,-0.01373291
0.111083984,-1.2317505,0.22479248
-0.0087890625,-0.9627075,0.10321045
0.09863281,-0.9998169,0.04144287
0.01171875,-1.0650024,0.022155762
0.21044922,-1.085022,0.26385498
0.11352539,-0.96710205,0.22723389
0.1743164,-0.9404907,0.19476318
0.1784668,-0.9336548,0.18792725
0.19311523,-0.94195557,0.17938232
0.083984375,-1.0745239,-0.0154418945
-0.07324219,-0.8008423,0.042663574
0.053466797,-1.2249146,0.124694824
-0.10595703,-1.02594,0.10028076
-0.037109375,-0.93927,0.15252686
-0.0390625,-0.991272,0.1293335
-0.07397461,-1.0288696,0.113220215
-0.12133789,-1.1035767,0.13983154
0.055908203,-0.8965454,0.20941162
0.13671875,-0.9573364,0.18817139
0.08203125,-0.9907837,0.19793701
0.17456055,-0.7876587,0.13275146
0.24829102,-0.60894775,0.047790527
0.1574707,-0.6983032,-0.0569458
0.31469727,-1.3460083,-0.053527832
0.45410156,-2.0,0.25360107
0.30932617,-2.0,0.418396
0.25561523,-0.6992798,0.11395264
-0.2626953,0.58221436,-0.17510986
0.11352539,-0.3250122,0.34954834
0.13745117,0.085876465,-0.13531494
0.13354492,-0.8833618,0.008972168
-0.0056152344,-2.0,0.5524292
0.47631836,-2.0,0.6832886
0.13305664,-1.4802856,0.43792725
0.068603516,0.46209717,-0.22686768
-0.04345703,-0.6602173,0.41278076
-0.09692383,0.101989746,0.070251465
0.18603516,0.020690918,-0.25860596
0.42236328,-1.7168579,0.4459839
0.12890625,-2.0,0.26141357
0.2800293,-2.0,0.7128296
0.095703125,-1.1240845,0.49993896
0.2290039,0.74090576,-0.32769775
-0.09814453,-0.8699341,0.49017334
-0.046142578,0.23699951,-0.022033691
0.12890625,-0.0025024414,-0.12554932
0.2824707,-2.0,0.5043335
-0.20751953,-2.0,0.8060913
0.2211914,-2.0,0.56781006
0.0690918,-1.2949829,0.24578857
0.103759766,0.4611206,-0.190979
0.17285156,-0.5549927,0.23016357
-0.14916992,0.20111084,0.02508545
0.095947266,0.0211792,-0.113098145
0.40966797,-1.2981567,-0.25152588
-0.37182617,-2.0,0.2020874
0.2253418,-2.0,0.42303467
0.19799805,-1.5906372,0.45526123
0.044433594,0.23260498,-0.22979736
0.107421875,-0.15289307,-0.19830322
-0.14916992,0.15350342,-0.082092285
0.07836914,0.02947998,0.0065307617
0.2644043,-1.2905884,0.41204834
-0.04321289,-2.0,0.3908081
-0.16064453,-2.0,0.3632202
0.1303711,-1.7402954,0.40203857
0.07519531,-0.19073486,-0.05230713
-0.095214844,0.40716553,-0.23883057
-0.033203125,0.0045776367,-0.09088135
-0.030761719,-0.09136963,-0.10308838
0.8215332,-2.0,1.5214233
0.42944336,-1.7063599,0.3222046
0.060058594,-1.3687134,0.35150146
0.18164062,-0.7803345,0.1071167
0.044677734,-0.6487427,0.11956787
-0.00048828125,-0.86065674,0.17401123
-0.06640625,-1.0413208,0.23138428
-0.09863281,-1.0425415,0.2597046
-0.091308594,-0.9873657,0.2333374
-0.07910156,-1.0022583,0.25653076
-0.036132812,-0.96588135,0.23040771
-0.010253906,-0.9690552,0.2880249
0.0041503906,-0.9824829,0.371521
0.06982422,-0.9216919,0.31903076
0.16967773,-0.9246216,0.3751831
0.21728516,-0.8394165,0.39471436
0.32373047,-0.80963135,0.43792725
0.32543945,-0.80255127,0.45135498
0.36279297,-0.7732544,0.47528076
0.31225586,-0.79278564,0.46722412
0.2446289,-0.8567505,0.4142456
