accelX,accelY,accelZ
0.091796875,-0.032043457,0.018249512
0.28564453,0.066101074,-0.0051879883
0.5854492,-2.0,-0.43536377
0.3317871,-1.1760864,-0.3328247
-0.44995117,0.78826904,-0.26983643
0.1262207,-0.13922119,-0.0005493164
-0.09741211,-0.23858643,0.11907959
0.114746094,-0.07476807,-0.054016113
0.82910156,-2.0,-0.33624268
0.4345703,-2.0,-0.0037231445
0.49658203,-1.4155884,-0.3587036
-0.14550781,0.888855,0.10443115
-0.10595703,-0.21368408,-0.07476807
-0.00390625,-0.34503174,-0.023254395
0.076660156,0.33465576,0.02557373
1.9125977,-2.0,0.81121826
0.40429688,-1.6375122,-0.3435669
-0.5385742,0.13201904,-0.5755005
0.30688477,-0.09991455,-0.05987549
-0.2548828,-0.1296997,0.09100342
0.16259766,-0.12823486,-0.06768799
0.87109375,-2.0,0.168396
0.8198242,-2.0,-0.12554932
0.4050293,-1.6099243,-0.16680908
-0.18334961,1.0067749,-0.18170166
-0.06762695,-0.3045044,-0.17388916
-0.021728516,-0.23883057,0.022644043
-0.0029296875,0.45550537,0.016052246
1.7519531,-2.0,0.22943115
0.5061035,-1.8435669,-0.047180176
0.22607422,0.21868896,-0.25201416
0.19873047,-0.11798096,-0.32452393
-0.08984375,-0.1741333,0.15960693
-0.18798828,-0.06719971,-0.09259033
0.32617188,-2.0,-1.7017212
0.7854004,-2.0,0.06903076
0.63256836,-0.9429321,0.3270874
-0.76782227,0.18695068,-0.39434814
0.3305664,0.20306396,0.03289795
-0.2644043,0.13201904,-0.09869385
0.1381836,-0.29058838,-0.23516846
1.513916,-2.0,0.10003662
0.7307129,-1.6079712,-0.44805908
-0.6538086,0.24212646,-0.60650635
0.4868164,0.1864624,-0.1921997
-0.20361328,-0.52301025,0.2086792
0.11254883,0.20184326,0.06097412
1.6914062,-2.0,-0.030822754
1.5322266,-2.0,0.4647827
-0.09667969,-0.67559814,-0.034484863
0.20727539,0.89520264,0.16522217
-0.2536621,-0.2630005,0.0099487305
0.056396484,0.08074951,-0.14117432
0.6591797,-1.4624634,-0.50445557
0.86376953,-2.0,-0.37774658
0.28979492,-0.34136963,-0.023742676
-0.16235352,0.826355,0.047546387
-0.14941406,-0.45513916,0.047302246
-0.047851562,-0.03302002,-0.06060791
0.6166992,-0.3015747,0.15887451
0.47216797,-0.13018799,-0.18511963
-0.19604492,0.4467163,-0.07232666
-0.1743164,-0.5083618,0.14007568
-0.010253906,0.16448975,-0.1416626
1.0715332,-2.0,-0.17364502
-0.052001953,-2.0,0.36224365
0.5378418,-0.9727173,-0.117248535
-0.46948242,0.82244873,0.06781006
-0.6669922,-0.15631104,-0.22149658
0.5942383,-1.3955688,0.5038452
0.99072266,-2.0,0.45892334
0.45751953,-1.2407837,-0.062561035
-0.32006836,0.08465576,-0.39263916
-0.1352539,0.6083374,0.27996826
0.14331055,-0.7359009,-0.20587158
-0.2487793,-2.0,-0.32696533
-0.029296875,-1.706604,0.014831543
0.6188965,-0.4258423,-0.20172119
-1.1027832,0.8722534,0.020202637
-0.24951172,0.44647217,-0.4776001
0.8942871,-2.0,0.13787842
0.057128906,-1.6602173,0.07318115
0.079833984,-0.5515747,-0.33746338
-0.14819336,1.4103394,0.066589355
-0.15698242,-0.3303833,-0.12774658
1.2780762,-1.7922974,-0.3201294
0.35717773,-1.8023071,-0.06573486
0.1459961,-0.18780518,-0.077941895
-0.24951172,0.77215576,0.094177246
0.46826172,0.0927124,0.0006713867
1.0412598,-2.0,-0.37701416
1.0288086,-1.534729,-0.12530518
0.27539062,-0.4788208,-0.32940674
0.35986328,0.61932373,-0.2564087
-0.41870117,-0.35577393,0.04144287
0.38964844,-2.0,-0.6968384
0.2434082,-1.9192505,-0.11871338
0.22021484,-0.17266846,-0.17071533
-0.22705078,1.0985718,0.4064331
0.25732422,-0.38116455,-0.12701416
-0.15405273,-1.4751587,-0.75201416
-0.08081055,-0.6453247,-0.16705322
0.22241211,1.2426147,-0.16046143
-0.35229492,-0.59747314,-0.60821533
1.999939,-2.0,0.5307007
0.5473633,-1.5293579,0.47454834
0.3461914,-1.2620239,0.46087646
-0.04296875,1.2086792,-1.2505493
0.9604492,-0.1260376,-0.47296143
1.8110352,-2.0,0.8602905
0.1977539,-0.30596924,0.028015137
-0.33691406,1.999939,0.5219116
-0.71655273,-0.39312744,-0.23468018
0.8781738,-2.0,-0.4356079
-0.026855469,-1.6760864,-0.2649536
0.3203125,0.13348389,-0.31134033
-0.05029297,0.4725952,0.23382568
-0.7644043,-0.5652466,0.24554443
1.480957,-2.0,-0.6572876
-0.25073242,-0.15093994,-0.24859619
0.2746582,0.79193115,0.14251709
-0.7199707,-0.5396118,0.29852295
0.73217773,-1.6987915,0.50946045
0.1550293,-2.0,0.9879761
0.6530762,0.5228882,-0.42974854
0.970459,-1.0388794,0.24920654
-0.96850586,-0.8999634,0.81829834
0.70288086,-0.94000244,0.41815186
-0.0146484375,0.06341553,-0.57354736
0.06713867,0.116882324,-0.26934814
0.24658203,-1.2202759,0.08660889
-1.1650391,-1.7542114,-0.019592285
0.90722656,-2.0,-0.1272583
0.2133789,0.03289795,0.031188965
-0.19165039,-0.03717041,0.089538574
-0.2475586,-2.0,0.015563965
-0.45996094,-1.4712524,0.023132324
0.34179688,-0.10455322,-0.18804932
-0.24804688,1.2213745,0.6696167
-0.8496094,-1.2339478,-0.5281372
0.70214844,-1.8435669,-0.06402588
-0.07714844,-1.5610962,0.57244873
0.7873535,0.42913818,-0.43511963
-0.125,-1.0896606,0.8710327
1.1271973,-2.0,0.35076904
0.0041503906,-0.6358032,-0.026916504
-0.10449219,1.2809448,0.13934326
-0.05419922,-0.17926025,0.07171631
0.4658203,-2.0,-0.47174072
0.21484375,-1.161438,0.027526855
0.29516602,-0.44586182,-0.10333252
-0.29077148,0.027526855,0.013122559
-0.017089844,-1.2102661,-0.12506104
-0.4104004,-2.0,0.4100952
0.33496094,-1.0247192,-0.13580322
0.122558594,0.54559326,-0.26885986
-0.24487305,-0.2144165,-0.0029907227
0.5751953,-2.0,0.33758545
0.5109863,-1.3467407,0.22576904
-0.3305664,-0.5574341,0.054382324
0.6672363,0.55926514,-0.109191895
-0.23779297,-2.0,0.2243042
0.5205078,-1.4612427,0.24017334
0.111083984,-0.008605957,-0.255188
-0.055908203,0.27752686,-0.16534424
0.3544922,-0.7300415,-0.11431885
-0.7397461,-1.9082642,0.25286865
0.19360352,-1.2578735,-0.07965088
0.0390625,-0.45806885,-0.20513916
0.21459961,-0.12188721,0.18133545
0.16845703,-1.272522,-0.09185791
0.07373047,-2.0,-0.16339111
0.1772461,-1.9021606,-0.09429932
-0.07739258,-0.2913208,-0.19146729
0.23413086,0.5817261,0.0033569336
-0.26049805,-0.3242798,-0.23175049
1.0273438,-2.0,-1.4207153
0.4033203,-2.0,0.37786865
0.07836914,-0.71295166,0.0602417
-0.1015625,0.9332886,0.24359131
0.65405273,-0.48468018,0.18133545
0.93359375,-1.9649048,-0.11456299
0.13061523,-0.5940552,0.21453857
-0.35205078,1.0714722,0.011169434
0.044921875,-0.20977783,-0.03692627
1.999939,-2.0,-2.0
-0.23046875,-1.6743774,-0.022521973
0.2932129,-0.7647095,-0.16192627
-0.28637695,0.29632568,-0.36602783
0.5266113,-0.2300415,0.13690186
-0.10449219,-1.9605103,-0.032287598
0.17163086,-2.0,-0.4373169
0.45507812,-1.0791626,-0.15533447
-0.010986328,0.13079834,-0.20172119
-0.009765625,-0.121154785,0.015808105
0.19384766,-0.26690674,-0.020080566
1.3701172,-2.0,0.02166748
0.6791992,-0.95318604,-0.07574463
0.16015625,-2.0,-0.14019775
1.1022949,-0.84820557,0.42401123
-0.27416992,0.4821167,-0.3237915
-0.09814453,-0.17388916,-0.07354736
0.1784668,-0.06427002,0.16912842
0.67529297,-0.82598877,-0.6651001
-0.36743164,-2.0,0.11273193
1.0683594,-2.0,-0.65460205
0.34643555,-1.2085571,-0.3760376
-0.35131836,0.6976929,-0.25689697
0.25830078,-0.25811768,-0.039123535
-0.18237305,-0.124572754,-0.08453369
0.39038086,-0.23858643,0.21282959
1.4560547,-2.0,-0.30474854
0.5805664,-2.0,-0.043762207
0.3383789,-1.1550903,-0.04498291
-0.09106445,0.20379639,-0.1104126
-0.022460938,-0.027893066,-0.058410645
0.25683594,-0.054504395,0.11444092
0.2397461,-0.29449463,-0.46173096
0.59155273,-1.9146118,-0.5667114
0.46264648,-1.873352,-0.7214966
0.36254883,-0.71832275,-0.237854
-0.21289062,1.3002319,0.39007568
-0.12841797,-0.35186768,-0.03692627
0.14404297,0.049743652,0.027770996
0.7805176,-2.0,-0.49908447
0.71240234,-1.3132935,0.5180054
0.81811523,-1.7288208,0.028503418
-0.2133789,-0.08721924,-0.18487549
0.14892578,0.23431396,-0.113098145
0.005126953,-0.120666504,0.117614746
0.016113281,-0.08258057,-0.007873535
1.999939,-2.0,0.15716553
-0.103759766,-2.0,-0.40167236
0.37231445,-0.7739868,-0.27471924
-0.42285156,1.3458862,0.215271
0.1640625,-0.3255005,0.1906128
-0.0859375,-0.025939941,-0.27911377
0.62109375,-0.8477173,-0.051818848
0.27905273,-1.1802368,-0.050354004
1.4013672,-2.0,0.24359131
-0.0925293,-0.34014893,0.013122559
0.17504883,0.45355225,-0.027893066
0.03173828,-0.14068604,0.24945068
0.0107421875,-0.11456299,-0.08721924
1.1767578,-2.0,-2.0
-0.55908203,-2.0,-0.15460205
0.56933594,-0.8755493,0.0048217773
-0.41015625,1.0946655,-0.42681885
0.1862793,-0.34014893,-0.101623535
-0.04321289,-0.24420166,-0.11090088
1.0400391,-1.4971313,-0.10992432
0.74365234,-1.3821411,-0.3032837
1.0183105,-2.0,0.27557373
0.21606445,-0.20196533,-0.12017822
0.024902344,0.6141968,0.008728027
-0.103759766,-0.16436768,0.21307373
0.21582031,-0.17681885,-0.08135986
-0.5822754,-2.0,-0.44952393
-0.10180664,-1.6470337,-0.6951294
0.26123047,-1.0037231,0.04510498
-0.3017578,0.21942139,-0.43951416
0.22143555,0.15863037,-0.0037231445
-0.22192383,-0.29449463,0.058532715
-0.38330078,-1.1213989,-0.16290283
0.75634766,-1.8596802,0.1449585
0.79833984,-2.0,0.67523193
-0.12182617,-0.31011963,-0.2420044
-0.053222656,0.76776123,0.12664795
-0.19458008,-0.105529785,0.10687256
0.31176758,-0.12677002,-0.093322754
0.779541,-2.0,-0.3213501
-0.671875,-1.3513794,0.1359253
0.36938477,-2.0,0.33563232
0.31933594,-0.3682251,-0.19439697
0.08203125,0.53948975,0.038024902
-0.34326172,-0.04888916,0.059753418
0.19970703,-0.32110596,0.34881592
0.8664551,-2.0,0.5700073
0.90405273,-1.2791138,0.52508545
0.46557617,-1.5747681,0.01361084
0.22167969,-0.1506958,-0.21368408
-0.0075683594,0.5302124,0.07562256
0.0146484375,-0.03765869,0.17718506
0.30126953,-2.0,-0.5371704
-1.1696777,-1.350647,0.93670654
0.50634766,-2.0,0.09075928
-0.06933594,-1.2622681,-0.16607666
0.119384766,0.16986084,-0.020812988
-0.26708984,0.33050537,0.0026245117
0.038330078,-0.18585205,-0.050842285
-0.32958984,-1.2732544,-0.22320557
1.5461426,-1.4421997,0.5631714
-0.14111328,-2.0,0.7538452
0.22387695,-0.39923096,0.11273193
-0.030029297,0.8151245,-0.0020141602
-0.1508789,-0.022521973,0.062194824
0.12548828,-0.2456665,-0.0154418945
1.999939,-2.0,-0.940979
-1.5048828,-1.2185669,0.07977295
1.3657227,-2.0,-0.11065674
0.0087890625,0.0026245117,-0.22271729
0.38500977,0.7350464,0.31341553
-0.41723633,-0.49957275,0.16644287
-0.43041992,-0.75738525,-0.097717285
0.62402344,-1.4446411,0.6273804
0.5751953,-2.0,0.25579834
-0.2290039,-0.17852783,0.03314209
0.0715332,0.79315186,0.19158936
0.18017578,0.14031982,0.10784912
-0.26757812,-0.73687744,-0.41046143
0.8823242,-1.7754517,-0.023986816
-0.62597656,-1.9573364,-0.55255127
0.66308594,-1.3765259,0.17962646
-0.31762695,0.12835693,-0.7554321
0.40161133,0.29144287,-0.25787354
-0.15649414,-0.5425415,0.047058105
0.03857422,-0.99176025,0.08099365
0.71972656,-1.487854,0.25653076
0.6242676,-2.0,0.008239746
0.034423828,0.17840576,-0.08917236
-0.0041503906,0.6564331,0.2399292
-0.04663086,-0.1362915,0.05999756
0.14160156,-0.27593994,-0.15704346
0.1274414,-2.0,-0.41680908
-0.5307617,-1.8621216,-0.628479
0.57958984,-0.76641846,-0.24005127
-0.84228516,0.6000366,-0.48101807
0.2084961,-0.09283447,-0.15142822
0.01953125,-0.4072876,0.08099365
0.53881836,-2.0,-0.39971924
0.7722168,-1.3181763,0.3139038
0.14160156,-2.0,0.18426514
-0.057617188,0.21282959,-0.082092285
0.118652344,0.41082764,-0.04937744
-0.02709961,-0.09503174,0.23675537
0.05102539,-0.3772583,-0.35968018
-1.7294922,-2.0,0.59661865
1.7338867,-2.0,-0.72735596
0.12719727,0.11907959,-0.13092041
0.15771484,0.807312,0.38519287
-0.021484375,-0.47491455,-0.0725708
-0.41723633,0.12884521,-0.27716064
1.3554688,-2.0,0.447937
0.4248047,-2.0,0.049987793
0.0769043,-0.20245361,-0.18756104
0.29492188,0.80999756,-0.0022583008
-0.075927734,-0.26275635,0.074401855
0.17626953,-0.31915283,-0.10797119
-0.59277344,-2.0,0.30096436
0.6965332,-2.0,-0.86431885
0.26367188,-0.13043213,0.4381714
0.4326172,1.1251831,0.4418335
-0.6020508,-0.8933716,0.2538452
-0.06616211,-0.03668213,0.5223999
1.401123,-2.0,0.7965698
0.03149414,-2.0,0.23822021
-0.14916992,0.5150757,-0.31329346
0.23095703,0.4335327,-0.11968994
-0.39038086,-0.22833252,0.038024902
1.0405273,-1.84552,-1.2756958
-1.6152344,-2.0,0.3060913
1.999939,-2.0,0.015563965
-0.20141602,-0.2510376,-0.37652588
0.21508789,0.9086304,0.15765381
-0.23388672,-0.6157837,0.16619873
0.0024414062,-1.4031372,0.385437
0.9650879,-1.4492798,0.8539429
-0.56225586,-2.0,0.33172607
0.063964844,-0.2786255,0.04168701
0.15576172,0.5651245,0.13983154
-0.4182129,-0.10479736,0.061462402
0.36206055,-1.3684692,-0.7661743
-1.4946289,-2.0,0.44232178
1.5280762,-2.0,0.113220215
0.17871094,-0.08917236,-0.17193604
0.029541016,0.84490967,0.22064209
-0.06518555,-0.614563,0.20428467
0.86743164,-1.1148071,-0.061828613
0.97265625,-1.4446411,0.29852295
0.36987305,-2.0,0.20892334
