accelX,accelY,accelZ
0.08520508,-0.96881104,0.15765381
0.11987305,-0.97076416,0.13739014
0.103271484,-0.96173096,0.16082764
0.099121094,-0.98931885,0.1696167
0.09277344,-0.9768677,0.15594482
0.09301758,-0.9631958,0.13372803
0.16699219,-0.9458618,0.024841309
0.06958008,-0.9180298,0.058288574
0.22387695,-1.0181274,-0.049865723
0.19677734,-1.0215454,-0.039855957
0.1875,-1.3731079,-0.16583252
0.4663086,-1.0540161,-0.18804932
0.46899414,-1.3672485,-0.17510986
0.38867188,-1.131897,-0.28448486
0.2409668,-1.0755005,-0.10845947
0.15576172,-0.79229736,-0.13018799
0.013183594,-0.77667236,-0.14703369
-0.022460938,-0.68414307,-0.117492676
0.092285156,-0.61553955,-0.07720947
0.026855469,-0.62701416,0.044128418
0.10961914,-0.9446411,0.16204834
-0.11791992,-1.0657349,0.18426514
0.5319824,-1.3440552,-0.27520752
-0.3701172,-1.0437622,-0.31988525
-0.07788086,-0.7659302,-0.027893066
-0.055419922,-0.8689575,-0.05255127
-0.20117188,-1.0464478,0.048034668
0.0014648438,-0.9404907,0.13763428
-0.01171875,-0.84161377,-0.059143066
0.2409668,-1.4846802,-0.24835205
-0.07885742,-0.925354,0.03778076
-0.13183594,-0.85528564,-0.09234619
-0.09838867,-1.039856,-0.022033691
0.12792969,-1.0220337,0.06781006
0.13720703,-1.0523071,0.1876831
-0.056640625,-0.6777954,-0.24005127
0.47094727,-1.217102,0.1605835
-0.08666992,-0.8689575,0.08514404
0.38012695,-0.8652954,0.012878418
0.23486328,-1.0261841,0.19012451
0.13085938,-0.98638916,0.14129639
-0.07128906,-0.98883057,0.16497803
-0.10107422,-1.0977173,0.12860107
0.43774414,-1.140686,-0.31549072
0.36035156,-1.1428833,0.15667725
0.03564453,-0.77593994,-0.07965088
-0.014160156,-0.85894775,-0.17559814
-0.25219727,-0.9976196,-0.23223877
-0.041748047,-0.88775635,-0.21636963
0.0715332,-0.8579712,-0.47418213
-0.09667969,-1.0320435,0.032165527
0.83569336,-1.1331177,0.18426514
-0.39575195,-0.63165283,-0.25909424
0.5275879,-1.0254517,0.046081543
0.15600586,-0.75494385,-0.02178955
0.125,-0.5840454,-0.00030517578
0.42919922,-0.7739868,-0.105041504
0.30444336,-0.973938,-0.10601807
0.41870117,-0.82110596,-0.12408447
0.4633789,-0.97125244,-0.25079346
0.39941406,-0.8464966,-0.23980713
0.54785156,-1.0742798,-0.22198486
0.3720703,-0.99713135,-0.19903564
0.43798828,-1.1067505,-0.19830322
0.2331543,-0.9873657,-0.14678955
0.16479492,-0.9829712,-0.04083252
0.14770508,-1.0217896,-0.04840088
0.025634766,-0.9500122,0.0692749
0.07470703,-1.0562134,0.066589355
-0.07470703,-0.987854,0.08294678
0.11035156,-0.95806885,0.018493652
0.12475586,-1.0386353,-0.038146973
0.2548828,-1.0715942,0.047302246
0.3864746,-1.0337524,-0.13555908
0.53930664,-1.2493286,-0.07232666
0.38354492,-1.081604,-0.159729
0.36108398,-1.1611938,-0.06695557
0.23242188,-1.0525513,-0.027648926
0.29125977,-0.95025635,-0.10870361
0.064697266,-0.78326416,-0.08062744
-0.04272461,-0.74420166,-0.13653564
-0.08276367,-0.8130493,-0.13189697
-0.024902344,-0.9019165,-0.06329346
-0.10913086,-0.9104614,-0.019836426
0.0012207031,-0.9990845,0.10345459
0.059570312,-1.0159302,0.081970215
0.099365234,-0.64385986,0.09637451
0.33374023,-1.2595825,0.061950684
-0.36791992,-1.0137329,-0.10772705
0.20703125,-0.86920166,0.12689209
0.08203125,-0.82696533,0.086364746
-0.007080078,-0.8687134,0.21722412
0.030517578,-1.0264282,0.26287842
0.02709961,-0.8970337,0.25579834
0.091308594,-0.90338135,0.31097412
-0.05419922,-1.0383911,0.26263428
0.38256836,-1.21344,0.04852295
0.12963867,-1.0967407,0.001159668
0.103515625,-0.9846802,0.09979248
0.029296875,-0.7805786,0.042663574
0.1274414,-0.73443604,0.020690918
0.1340332,-0.706604,0.078308105
0.15576172,-0.9072876,0.27264404
0.24047852,-0.98687744,0.14569092
0.46875,-0.6409302,-0.5286255
0.48901367,-0.7451782,-0.051574707
0.6965332,-0.569397,-0.17852783
0.21313477,-0.5532837,-0.06964111
1.0178223,-0.6880493,-0.34820557
0.5966797,-0.708313,-0.07183838
0.6582031,-0.7073364,-0.21343994
0.7890625,-0.7984009,-0.5425415
0.9404297,-0.93292236,-0.32476807
0.5097656,-0.9146118,0.13494873
0.46118164,-1.1201782,-0.043518066
0.40673828,-0.7974243,0.12567139
0.32006836,-0.89556885,0.02142334
-0.16772461,-1.1636353,0.5060425
-0.008300781,-1.1814575,0.2880249
-0.17016602,-1.3191528,0.078552246
-0.3798828,-0.9678345,0.1449585
-0.13134766,-0.96661377,0.16644287
-0.17749023,-1.0601196,0.25482178
-0.104003906,-0.6380005,0.3866577
-0.46411133,-0.79815674,0.12542725
-0.22436523,-1.0899048,0.27044678
-0.3876953,-0.88653564,0.5429077
-0.5566406,-0.9678345,0.42132568
-0.21801758,-0.7163696,0.47161865
-0.38867188,-0.7283325,0.513855
-0.3383789,-0.6511841,0.6671753
-0.46948242,-0.5606079,0.70111084
-0.44091797,-0.5022583,0.8407593
-0.4970703,-0.49835205,0.930603
-0.63500977,-0.61920166,1.0619507
-0.3137207,-0.010070801,0.91571045
-0.50512695,-0.13873291,0.92303467
-0.52563477,0.0018920898,0.9110718
-0.546875,-0.20806885,0.9176636
-0.47802734,-0.35723877,0.96258545
-0.45996094,-0.19268799,0.9520874
-0.3095703,-0.22174072,0.94207764
-0.42797852,-0.22906494,1.0040894
-0.37573242,-0.14263916,0.9484253
-0.36987305,-0.20074463,0.96795654
-0.44384766,-0.28399658,0.9899292
-0.3840332,-0.2197876,0.9525757
-0.4230957,-0.24249268,0.9996948
-0.41357422,-0.17242432,0.96746826
-0.3725586,-0.1831665,0.918396
-0.29125977,-0.19927979,0.9953003
-0.49145508,-0.19122314,0.9435425
-0.27026367,-0.19561768,1.0343628
-0.24121094,-0.14703369,1.0136108
-0.3581543,-0.1897583,0.9413452
-0.3173828,-0.07598877,0.96136475
-0.5097656,-0.19073486,0.8485718
-0.73950195,-0.03741455,0.8036499
-0.8432617,-0.07598877,0.8563843
-0.9296875,-0.24346924,0.84588623
-0.5974121,-0.33966064,0.70233154
-0.69384766,-0.47369385,0.55511475
-0.75756836,-0.427063,0.52948
-0.7297363,-0.51397705,0.51190186
-0.73046875,-0.56695557,0.5507202
-0.7150879,-0.7263794,0.45916748
-0.62280273,-0.76226807,0.3209839
-0.49414062,-0.82354736,0.30096436
-0.43408203,-0.8245239,0.29534912
-0.47607422,-0.8430786,0.28582764
-0.38793945,-0.86431885,0.2909546
-0.3876953,-0.93218994,0.2411499
-0.4350586,-0.89263916,0.1473999
-0.38964844,-0.8948364,0.18670654
-0.32470703,-0.9067993,0.19158936
-0.3173828,-0.9602661,0.29193115
-0.29492188,-0.97198486,0.21185303
-0.36914062,-1.1340942,0.10809326
-0.49414062,-0.69244385,0.039001465
-0.58740234,-0.97125244,-0.1362915
-0.62719727,-0.9155884,-0.2131958
-0.3696289,-0.97735596,-0.15582275
-0.24243164,-1.1463013,-0.21343994
-0.024658203,-1.3284302,-0.5408325
-0.008544922,-0.87164307,-0.29595947
0.25708008,-1.1946411,-0.43707275
0.43774414,-0.6856079,-0.18927002
0.18164062,-0.7427368,-0.46588135
0.2409668,-0.8826294,-0.44317627
0.81225586,-0.7510376,-0.7893677
0.42382812,-1.3379517,-0.113098145
0.6052246,-0.78302,-0.17340088
0.03173828,-0.6370239,-0.12872314
0.2512207,-0.75860596,-0.109191895
0.14428711,-0.6116333,0.078552246
0.25854492,-0.44122314,-0.011291504
0.22143555,-0.87213135,0.10247803
0.16674805,-0.9985962,0.12713623
0.28173828,-0.9126587,-0.23638916
0.38500977,-1.2337036,-0.24835205
-0.20776367,-0.8418579,-0.1338501
0.18920898,-0.8389282,-0.00030517578
0.12548828,-0.95684814,0.0289917
-0.052978516,-1.0203247,0.066345215
0.12109375,-1.1709595,0.22161865
0.045410156,-1.029602,-0.1404419
0.56225586,-0.81744385,0.19573975
0.25439453,-1.2285767,-0.0569458
0.052734375,-0.5767212,0.020446777
0.20825195,-0.7739868,0.24139404
0.114746094,-1.0650024,0.3764038
0.1496582,-1.190979,0.17913818
0.03930664,-1.0493774,0.41400146
0.33447266,-1.0696411,0.1395874
0.23242188,-1.1140747,-0.25860596
0.20996094,-1.1690063,0.12908936
0.18017578,-0.75494385,-0.08013916
-0.0056152344,-0.9661255,0.01776123
0.061035156,-1.0122681,0.02508545
0.04272461,-0.95098877,0.0036010742
-0.2043457,-0.90045166,0.0680542
-0.20239258,-1.0942993,0.019226074
-0.07446289,-0.96661377,0.08758545
0.23950195,-0.79693604,0.03314209
0.640625,-0.7930298,0.07269287
0.36132812,-0.92852783,-0.05718994
0.3857422,-0.7337036,0.06390381
0.40356445,-0.81573486,0.13470459
0.7570801,-0.6206665,0.0026245117
0.26611328,-0.57110596,-0.12017822
0.64990234,-0.58258057,-0.055480957
0.70458984,-0.80133057,-0.06109619
0.6008301,-0.62872314,-0.08258057
0.51953125,-1.0584106,-0.20904541
0.92089844,-0.927063,0.18206787
0.7939453,-0.92071533,-0.073791504
0.7272949,-0.83013916,0.059753418
0.50878906,-0.9048462,0.10369873
0.3930664,-0.9915161,0.040222168
0.06567383,-0.9885864,0.11199951
0.020751953,-0.958313,0.15081787
0.032958984,-1.0449829,0.10369873
-0.103759766,-0.9011841,0.14398193
-0.060302734,-1.1069946,0.3619995
-0.087402344,-0.92193604,0.19329834
-0.018310547,-0.9627075,0.026550293
0.11669922,-0.99176025,0.089538574
0.115722656,-1.0601196,0.0770874
0.12792969,-0.9546509,0.039245605
0.4152832,-0.8904419,-0.128479
0.4050293,-0.83380127,-0.20367432
0.8479004,-1.0366821,-0.40093994
0.4104004,-1.0579224,-0.22125244
0.5522461,-0.81378174,-0.12335205
0.56591797,-0.9216919,-0.23345947
0.6040039,-1.18927,-0.17462158
0.5046387,-1.8381958,-0.07501221
0.2019043,-1.8948364,-0.15093994
0.22631836,-0.3567505,-0.67315674
-0.03564453,0.4640503,-0.32940674
0.01953125,-0.0960083,-0.042785645
0.03955078,0.036071777,0.10345459
-0.015625,0.10491943,-0.02545166
-0.0041503906,-0.31256104,-0.3040161
1.8566895,-2.0,0.5199585
-0.05053711,-1.645813,-1.0044556
-0.3334961,0.57196045,-0.300354
-0.029296875,-0.23809814,0.124938965
-0.16552734,0.0289917,-0.05645752
0.33007812,0.08538818,0.06976318
0.028320312,-0.22833252,-0.5244751
-0.063964844,-2.0,0.0289917
1.1228027,-2.0,0.80340576
-0.23583984,-1.0288696,-0.48931885
0.049316406,-0.19927979,0.3168335
-0.28173828,-0.07989502,-0.12579346
0.63964844,-1.352356,-0.27056885
0.18286133,-1.4631958,-0.078430176
-0.068847656,-1.0357056,0.3024292
0.048339844,-0.40020752,0.0602417
-0.068115234,-0.27960205,0.2387085
0.27856445,-1.6626587,-0.32305908
0.13647461,-1.3052368,0.16790771
-0.15063477,-0.84259033,0.17279053
-0.03149414,-0.37872314,0.08807373
-0.28027344,-0.93292236,0.09442139
0.17993164,-0.6333618,0.046081543
-0.047851562,-1.8901978,-0.2612915
0.103759766,-1.487854,-0.066223145
-0.41674805,-0.7415161,-0.20904541
0.60595703,-0.6445923,-0.16290283
0.16455078,-0.85162354,0.082458496
0.18847656,-0.9002075,-0.3875122
0.18066406,-1.2200317,-0.25738525
0.080322266,-1.1287231,-0.0044555664
-0.36035156,-0.8880005,-0.20098877
-0.16674805,-1.055481,-0.02154541
-0.1574707,-0.96343994,-0.10455322
-0.2836914,-1.0188599,-0.10211182
-0.2541504,-1.036438,-0.054260254
0.16235352,-1.0127563,-0.20050049
-0.24414062,-1.3491821,-0.28009033
0.057373047,-0.9734497,-0.28082275
0.0871582,-0.8599243,-0.38580322
0.07128906,-1.0005493,-0.30743408
0.3708496,-0.89971924,-0.14776611
0.12084961,-0.7925415,0.01776123
-0.05126953,-0.9356079,-0.14019775
0.5739746,-1.125061,0.042175293
-0.38793945,-1.2498169,-0.8167114
-0.17919922,-0.7383423,-0.039611816
-0.42358398,-1.0308228,-0.67437744
-0.12475586,-1.0838013,-0.5120239
0.27514648,-0.9573364,-0.317688
-0.05859375,-0.95562744,-0.13311768
-0.33129883,-0.9649048,-0.2852173
-0.0041503906,-0.80181885,-0.23809814
0.31152344,-1.0254517,-0.09136963
-0.08105469,-1.0532837,0.22625732
0.2548828,-1.4353638,0.32806396
0.07470703,-0.66290283,0.13812256
0.119628906,-0.89678955,0.17816162
0.20019531,-0.86724854,0.12982178
-0.020996094,-0.9324341,0.31756592
0.14111328,-0.91534424,0.12030029
-0.26293945,-1.3135376,-0.15435791
0.85498047,-0.9902954,-0.0051879883
0.25170898,-1.2398071,0.15228271
0.16479492,-0.5474243,-0.08477783
-0.13110352,-0.95635986,0.15228271
0.06958008,-0.93463135,0.121276855
-0.16723633,-0.9673462,0.21820068
0.44458008,-1.083313,-0.09234619
0.6965332,-1.3967896,0.1473999
-0.21386719,-1.0007935,-0.025939941
-0.072265625,-0.7300415,0.08099365
0.24609375,-0.82110596,0.1317749
-0.04736328,-0.8765259,0.17840576
0.21923828,-1.0835571,0.26287842
-0.32861328,-0.9421997,-6.1035156e-05
0.9194336,-1.6106567,-0.05328369
-0.11669922,-0.87750244,-0.010803223
0.20800781,-1.0073853,-0.13311768
-0.19580078,-0.90753174,-0.16778564
-0.19555664,-0.97735596,-0.06842041
-0.05517578,-0.92266846,0.002380371
-0.018554688,-1.0462036,0.03704834
-0.032958984,-0.8831177,0.030700684
0.3071289,-1.1607056,0.18157959
0.14135742,-1.0144653,-0.05596924
0.23852539,-0.9299927,0.050720215
0.052734375,-0.8870239,0.16107178
0.20288086,-0.9036255,0.3131714
-0.011230469,-1.1004028,0.34710693
0.036621094,-1.1636353,0.21185303
0.7258301,-1.0588989,-0.41534424
-0.015380859,-1.1704712,0.109802246
0.10839844,-0.8296509,0.035827637
-0.11645508,-0.8904419,0.12567139
0.023925781,-0.81451416,0.13006592
-0.15014648,-0.8467407,0.17059326
0.07519531,-1.3672485,0.5026245
-0.0234375,-0.8870239,-0.03765869
0.19165039,-0.87164307,0.066833496
0.12182617,-1.1194458,0.005554199
-0.07543945,-0.8508911,0.027038574
0.15356445,-0.770813,0.12298584
0.034423828,-0.90509033,0.12298584
0.007080078,-0.9800415,0.2567749
-0.17895508,-1.4871216,-0.24786377
0.23510742,-0.97247314,0.08074951
-0.2277832,-1.2300415,0.0914917
-0.09106445,-0.60894775,0.039001465
-0.051757812,-1.0037231,0.07147217
-0.030761719,-1.0618286,0.1671753
0.328125,-1.1091919,0.32147217
-0.18823242,-0.9331665,-0.14459229
-0.26391602,-0.9668579,0.11077881
0.047851562,-1.0093384,0.015563965
-0.04272461,-0.99884033,-0.18121338
