accelX,accelY,accelZ
0.10083008,-0.9944458,-0.12359619
0.08129883,-0.98516846,-0.0947876
0.0769043,-0.98638916,-0.0960083
0.088134766,-0.9841919,-0.10870361
0.099121094,-0.98101807,-0.105285645
0.11035156,-0.97735596,-0.09112549
0.10253906,-0.99224854,-0.109680176
0.09375,-0.9973755,-0.12164307
0.037353516,-0.98150635,-0.12896729
0.036376953,-0.98150635,-0.15679932
0.012207031,-0.9866333,-0.008850098
0.051513672,-0.96295166,-0.11651611
0.043945312,-0.98516846,-0.14068604
0.03125,-0.9710083,-0.13360596
0.0043945312,-0.9690552,-0.15460205
0.08203125,-1.0288696,-0.14874268
0.2668457,-0.8648071,-0.18658447
0.25634766,-0.9961548,-0.13702393
0.24975586,-0.9507446,-0.13189697
0.2355957,-0.9229126,-0.12213135
0.24291992,-0.91119385,-0.11090088
0.14477539,-0.93829346,-0.10308838
0.17749023,-1.0730591,-0.18951416
-0.024902344,-0.9714966,-0.065979004
0.1105957,-1.0151978,-0.18463135
0.04248047,-1.0288696,-0.09893799
0.064697266,-0.9487915,-0.14068604
0.0715332,-1.0076294,-0.18756104
0.075683594,-0.9690552,-0.20513916
0.005859375,-0.9656372,-0.20074463
0.20605469,-0.90338135,-0.19415283
0.33251953,-0.88726807,-0.2300415
0.063964844,-0.9507446,-0.124572754
0.19848633,-0.9590454,-0.10284424
0.1940918,-0.95147705,-0.13433838
0.19311523,-0.9351196,-0.09185791
0.2541504,-0.88238525,-0.18048096
0.2097168,-0.9224243,-0.3015747
0.012939453,-0.84381104,-0.3106079
0.25805664,-0.8887329,-0.45635986
0.20800781,-0.86383057,-0.38067627
0.1665039,-0.85943604,-0.47808838
0.20263672,-0.7905884,-0.48565674
0.28637695,-0.6885376,-0.51226807
0.14477539,-0.73321533,-0.120910645
0.140625,-0.8796997,-0.27398682
0.44750977,-0.6487427,-0.32183838
0.35180664,-0.4175415,-0.3340454
0.30078125,-0.78497314,-0.5298462
0.40356445,-0.567688,-0.60406494
0.4633789,-0.5039673,-0.690979
0.42285156,-0.5654907,-0.65826416
0.5661621,-0.5413208,-0.76226807
0.58691406,-0.49395752,-0.8049927
0.56103516,-0.54473877,-0.6956177
0.46923828,-0.5269165,-0.642395
0.45751953,-0.7114868,-0.7288208
0.5078125,-0.8633423,-0.7349243
0.38916016,-0.9456177,-0.4998169
0.2770996,-0.7803345,-0.3345337
0.3076172,-0.7954712,-0.3447876
0.28027344,-0.83721924,-0.36236572
0.25170898,-0.9199829,-0.32183838
0.1652832,-0.96759033,-0.20635986
0.17480469,-0.9468384,-0.20098877
0.122802734,-0.9204712,-0.17510986
0.11035156,-1.0274048,-0.117248535
0.123535156,-0.94415283,-0.15167236
0.10083008,-0.9302368,-0.15899658
0.119628906,-0.9627075,-0.128479
0.15917969,-0.95684814,-0.1963501
0.16503906,-0.9229126,-0.21514893
0.1940918,-0.8765259,-0.29840088
0.24145508,-0.8428345,-0.36505127
0.28857422,-0.8257446,-0.3965454
0.32910156,-0.7793579,-0.4985962
0.35205078,-0.7029419,-0.57769775
0.4909668,-0.62628174,-0.940979
0.564209,-0.41046143,-1.0664673
0.55444336,-0.22296143,-0.986145
0.51220703,-0.18951416,-0.8892212
0.55249023,-0.11383057,-0.91192627
0.5109863,-0.14483643,-0.880188
0.5217285,-0.16265869,-0.8428345
0.45141602,-0.18536377,-0.7432251
0.47680664,-0.27838135,-0.74053955
0.46923828,-0.36138916,-0.7090454
0.43725586,-0.40338135,-0.6777954
0.44213867,-0.45880127,-0.6409302
0.41992188,-0.50909424,-0.5808716
0.46118164,-0.57159424,-0.51275635
0.32104492,-0.71051025,-0.409729
0.3449707,-0.73223877,-0.38482666
0.23120117,-0.84552,-0.2786255
0.34643555,-0.90289307,-0.36260986
0.21557617,-0.77130127,-0.32183838
0.23217773,-0.8821411,-0.31451416
0.15112305,-0.94659424,-0.36749268
0.06518555,-0.97003174,-0.24102783
0.111572266,-0.9365845,-0.25616455
0.10131836,-0.9697876,-0.25421143
0.10620117,-0.9356079,-0.29351807
0.0056152344,-0.9155884,-0.3255005
0.29614258,-0.92437744,-0.15411377
0.29663086,-0.96221924,-0.24615479
0.13476562,-0.8987427,-0.16168213
0.18261719,-0.927063,-0.15802002
0.27392578,-0.93878174,-0.19024658
0.21533203,-0.9216919,-0.17706299
0.17822266,-0.90753174,-0.22418213
0.15966797,-1.0247192,-0.40142822
-0.20532227,-1.0874634,-0.12701416
0.1694336,-0.9898071,-0.24029541
0.04272461,-0.93878174,-0.3032837
0.04663086,-0.95758057,-0.30352783
0.103271484,-0.9158325,-0.3110962
0.11743164,-1.0620728,-0.3255005
0.21166992,-1.0286255,-0.35992432
0.1875,-0.93585205,-0.11114502
0.14013672,-0.88604736,-0.10089111
0.31420898,-0.8245239,-0.2498169
0.3474121,-0.80548096,-0.5366821
0.24658203,-0.82110596,-0.3460083
0.34545898,-0.71343994,-0.4553833
0.43676758,-0.6709595,-0.5005493
0.59814453,-0.62823486,-0.5930786
0.5,-0.48394775,-0.60723877
0.5612793,-0.3789673,-0.6355591
0.39013672,-0.20635986,-0.7227173
0.61157227,-0.22442627,-0.8765259
0.53271484,-0.06060791,-0.93414307
0.5234375,0.10809326,-0.9451294
0.58935547,0.22869873,-0.940979
0.5275879,0.33172607,-0.9138794
0.50390625,0.33294678,-0.8442993
0.45410156,0.27288818,-0.73150635
0.46899414,0.23699951,-0.72906494
0.44921875,0.17181396,-0.73394775
0.4243164,0.15350342,-0.73101807
0.515625,0.20428467,-0.78131104
0.6213379,0.2267456,-0.89630127
0.65063477,0.21282959,-0.9348755
0.6748047,0.16497803,-0.9324341
0.6201172,0.042907715,-0.89434814
0.564209,-0.13726807,-0.82232666
0.54052734,-0.2798462,-0.7234497
0.5048828,-0.40093994,-0.64849854
0.44580078,-0.5408325,-0.56036377
0.38427734,-0.6682739,-0.503479
0.32958984,-0.7114868,-0.3994751
0.24731445,-0.7905884,-0.3821411
0.19580078,-0.8250122,-0.35235596
0.100097656,-0.84698486,-0.38897705
0.14550781,-0.9534302,-0.4102173
0.0390625,-0.94537354,-0.3081665
0.03149414,-0.9299927,-0.33624268
0.013916016,-0.96661377,-0.30596924
0.22436523,-1.0425415,-0.2979126
0.10888672,-0.93048096,-0.31451416
0.10839844,-1.0640259,-0.21881104
0.16333008,-0.9649048,-0.10284424
0.11279297,-0.89312744,-0.18780518
0.16601562,-0.9168091,-0.18536377
0.14428711,-0.9536743,-0.16973877
0.14941406,-0.95391846,-0.15362549
0.06201172,-0.91656494,-0.27789307
0.16577148,-0.87701416,-0.3965454
0.122802734,-1.0535278,-0.2354126
0.07128906,-0.9873657,-0.28912354
0.10205078,-0.91607666,-0.3118286
0.11035156,-0.90948486,-0.36138916
0.31323242,-0.8123169,-0.3892212
0.25634766,-0.86846924,-0.1494751
0.29736328,-1.0720825,-0.18145752
0.3540039,-0.82403564,-0.19488525
0.33081055,-0.79034424,-0.17974854
0.2861328,-0.7131958,-0.2637329
0.6296387,-0.57769775,-0.55181885
0.48388672,-0.6814575,-0.6084595
0.18676758,-0.81207275,-0.5142212
0.32885742,-0.62286377,-0.5889282
0.32470703,-0.46148682,-0.5298462
0.5270996,-0.3796997,-0.51153564
0.1772461,-0.44073486,-0.4595337
0.42333984,-0.517395,-0.60040283
0.5686035,-0.44122314,-0.6565552
0.5505371,-0.3694458,-0.6897583
0.6616211,-0.38482666,-0.7942505
0.8071289,-0.51763916,-1.1209106
0.5383301,-0.76690674,-1.0127563
0.27978516,-0.6514282,-0.60235596
0.40673828,-0.65802,-0.61553955
0.3701172,-0.6292114,-0.57037354
0.36450195,-0.6836548,-0.5046997
0.38305664,-0.80133057,-0.5178833
0.35229492,-0.80792236,-0.411438
0.33496094,-0.7920532,-0.41192627
0.3100586,-0.7817993,-0.42071533
0.29467773,-0.78082275,-0.42486572
0.3178711,-0.80010986,-0.4517212
0.33789062,-0.7678833,-0.5071411
0.36157227,-0.69488525,-0.5701294
0.39794922,-0.63482666,-0.60479736
0.6113281,-0.5923462,-0.8838501
0.6074219,-0.48223877,-1.0437622
0.5427246,-0.38775635,-0.96954346
0.5649414,-0.36773682,-0.88409424
0.5175781,-0.34576416,-0.83380127
0.41674805,-0.37554932,-0.7481079
0.36035156,-0.4463501,-0.6902466
0.3269043,-0.4866333,-0.69073486
0.34521484,-0.46148682,-0.63726807
0.20483398,-0.49053955,-0.56085205
0.22167969,-0.565979,-0.517395
0.34179688,-0.54400635,-0.4920044
0.23120117,-0.8062134,-0.51690674
0.27172852,-0.7612915,-0.46636963
0.14111328,-0.8179321,-0.46466064
0.25317383,-0.7371216,-0.3496704
0.29882812,-0.55255127,-0.8411255
-0.048828125,-0.8242798,-0.6213989
0.060302734,-0.90289307,-0.47808838
-0.052246094,-0.89385986,-0.46759033
0.06542969,-0.847229,-0.46832275
0.041259766,-0.86505127,-0.4163208
0.2084961,-0.94976807,-0.46051025
0.30810547,-0.6524048,-0.27471924
0.06567383,-1.0596313,-0.27642822
0.20043945,-0.9636841,-0.25836182
0.23828125,-0.8460083,-0.3098755
0.30615234,-0.85943604,-0.27374268
0.28833008,-0.81085205,-0.22564697
0.21899414,-1.0147095,-0.38702393
0.11987305,-0.8604126,-0.4036255
0.26733398,-0.8665161,-0.42071533
0.17114258,-0.86602783,-0.3189087
0.2109375,-0.8362427,-0.38897705
0.20336914,-0.81036377,-0.41607666
0.29956055,-0.88482666,-0.44122314
0.5292969,-0.65093994,-0.536438
0.20629883,-0.78692627,-0.5576782
0.38427734,-0.69610596,-0.5286255
0.40673828,-0.5405884,-0.6682739
0.6254883,-0.37652588,-0.6709595
0.7126465,-0.26226807,-0.85162354
0.52319336,-0.12164307,-0.7920532
0.46557617,0.050720215,-0.79766846
0.5229492,0.18035889,-0.7991333
0.51831055,0.3776245,-0.8386841
0.4074707,0.40594482,-0.8225708
0.45361328,0.48602295,-0.8245239
0.43896484,0.5248413,-0.8640747
0.40014648,0.46624756,-0.8167114
0.3569336,0.416687,-0.7942505
0.34423828,0.39715576,-0.76763916
0.3486328,0.34100342,-0.7576294
0.34179688,0.32269287,-0.73516846
0.37670898,0.36297607,-0.76153564
0.3720703,0.38323975,-0.7402954
0.4387207,0.42938232,-0.7810669
0.4645996,0.48065186,-0.8245239
0.49414062,0.49847412,-0.8538208
0.47558594,0.4472046,-0.8587036
0.4868164,0.3624878,-0.9006958
0.47631836,0.19818115,-0.8538208
0.48657227,0.11859131,-0.86187744
0.51171875,-0.11602783,-0.8320923
0.5004883,-0.23931885,-0.7564087
0.4921875,-0.40045166,-0.708313
0.42895508,-0.53448486,-0.6189575
0.38867188,-0.6494751,-0.5171509
0.33496094,-0.6983032,-0.47125244
0.3244629,-0.80255127,-0.41656494
0.2121582,-0.82159424,-0.39874268
0.30639648,-0.913147,-0.4204712
0.07739258,-0.93634033,-0.32452393
0.17285156,-0.91656494,-0.38555908
0.2043457,-0.829895,-0.41363525
0.21044922,-0.9854126,-0.42510986
0.38061523,-0.85040283,-0.28131104
0.29589844,-0.98931885,-0.08868408
0.23266602,-0.91119385,-0.1296997
0.22192383,-0.9055786,-0.121154785
0.2397461,-0.91070557,-0.1326294
0.23510742,-0.9092407,-0.19390869
0.11791992,-0.8701782,-0.30743408
0.28149414,-1.0149536,-0.3394165
-0.026367188,-1.0120239,-0.25323486
0.03149414,-0.9692993,-0.23297119
0.12475586,-0.9402466,-0.2930298
0.053466797,-0.9072876,-0.34942627
0.13916016,-0.96051025,-0.3760376
0.30908203,-0.972229,-0.31207275
0.22509766,-1.0215454,-0.2341919
0.08276367,-0.928772,-0.11798096
0.18188477,-0.9546509,-0.17608643
0.25634766,-0.897522,-0.07989502
0.21533203,-0.8870239,-0.20758057
0.25463867,-0.94610596,-0.48345947
0.2434082,-1.0100708,-0.41485596
0.27783203,-0.8530884,-0.5046997
0.22314453,-0.62286377,-0.35284424
0.37109375,-0.62384033,-0.39678955
0.30639648,-0.6133423,-0.45074463
0.43481445,-0.61138916,-0.49786377
0.5827637,-0.5449829,-0.59161377
0.6269531,-0.5696411,-0.62750244
0.62597656,-0.5015259,-0.7481079
0.6328125,-0.52716064,-0.8081665
0.43945312,-0.49884033,-0.7185669
0.4711914,-0.57037354,-0.6865845
0.6027832,-1.1016235,-0.9649048
0.38745117,-1.0252075,-0.7095337
0.125,-0.6680298,-0.32452393
0.22509766,-0.75665283,-0.38848877
0.2241211,-0.9299927,-0.46710205
0.14282227,-0.9221802,-0.3477173
0.16503906,-0.8401489,-0.3411255
0.23291016,-0.8862915,-0.38653564
0.21508789,-0.895813,-0.4043579
0.16137695,-0.8599243,-0.37139893
0.2175293,-0.8648071,-0.39605713
0.22680664,-0.8110962,-0.4631958
0.22216797,-0.7359009,-0.50006104
0.2619629,-0.69415283,-0.5991821
0.34399414,-0.73687744,-0.6589966
0.4819336,-0.77178955,-1.0859985
0.560791,-0.47003174,-1.0291138
0.58813477,-0.4204712,-0.96099854
0.46679688,-0.45684814,-0.85113525
0.40844727,-0.425354,-0.72320557
0.3803711,-0.47296143,-0.6189575
0.30810547,-0.53326416,-0.55010986
0.4243164,-0.538147,-0.4866333
0.39160156,-0.579895,-0.43023682
0.31298828,-0.74176025,-0.34454346
0.33984375,-0.69976807,-0.40020752
0.20507812,-0.79034424,-0.3369751
0.20483398,-0.7576294,-0.37506104
0.19580078,-0.923645,-0.39263916
0.1105957,-0.9204712,-0.2564087
0.061279297,-0.9378052,-0.2756958
0.12646484,-0.95977783,-0.3147583
-0.001953125,-0.94781494,-0.27911377
0.12670898,-1.0061646,-0.38531494
0.2631836,-0.86260986,-0.20489502
0.28588867,-0.9924927,-0.20489502
0.1586914,-0.9534302,-0.18389893
0.28344727,-0.8699341,-0.18487549
0.28857422,-0.90216064,-0.18927002
0.21508789,-0.8899536,-0.21368408
0.14477539,-1.1375122,-0.41534424
-0.15673828,-1.0476685,-0.21905518
0.107666016,-0.9578247,-0.28570557
0.038330078,-0.92755127,-0.2432251
0.015136719,-0.9470825,-0.28375244
0.09716797,-0.93096924,-0.3213501
0.0107421875,-0.8845825,-0.42193604
0.2355957,-0.91656494,-0.45684814
0.0690918,-0.92388916,-0.31817627
0.11254883,-0.9673462,-0.21807861
0.28979492,-0.9319458,-0.255188
0.23046875,-0.9133911,-0.20391846
0.1953125,-0.91485596,-0.21392822
0.25634766,-0.8533325,-0.2617798
0.19555664,-0.78570557,-0.28399658
0.24169922,-0.7571411,-0.64141846
0.28125,-1.006897,-0.44952393
0.15527344,-0.7984009,-0.4661255
0.20922852,-0.80474854,-0.52130127
0.24267578,-0.7173462,-0.4505005
0.32983398,-0.6958618,-0.5256958
0.32861328,-0.6729126,-0.55596924
0.56469727,-0.46295166,-0.5647583
0.6608887,-0.55548096,-0.6211548
0.5891113,-0.29937744,-0.6716919
0.6455078,-0.3867798,-0.76568604
0.5625,-0.27252197,-0.6878052
0.48828125,-0.09161377,-0.7029419
0.5378418,0.058288574,-0.69195557
0.61376953,0.23773193,-0.8406372
0.5917969,0.31365967,-0.8206177
0.61376953,0.45965576,-0.8345337
