accelX,accelY,accelZ
-0.21899414,-0.9385376,-0.28741455
-0.45385742,-1.0300903,-0.3694458
-0.05859375,-0.9817505,0.014587402
0.21020508,-1.1533813,0.29022217
0.3708496,-1.12677,-0.022277832
0.06542969,-0.7962036,0.002380371
0.06518555,-0.975647,0.11273193
0.07104492,-0.8977661,0.19281006
0.2121582,-0.8015747,0.13616943
0.10107422,-0.8699341,0.1864624
0.012207031,-1.1790161,0.10687256
0.118896484,-1.3018188,0.05316162
-0.08544922,-1.3286743,-0.32208252
-0.095703125,-1.3716431,0.11029053
0.00024414062,-1.3335571,-0.06451416
-0.03955078,-1.0462036,-0.047180176
0.0625,-0.6091919,-0.23760986
-0.1003418,-0.65582275,0.0067749023
0.049316406,-0.6304321,0.061950684
-0.03466797,-0.8062134,-0.15875244
-0.09716797,-0.8394165,-0.17340088
0.08959961,-1.1694946,0.042907715
0.056396484,-0.9561157,0.17645264
-0.11621094,-0.86602783,0.070251465
0.02758789,-0.944397,0.2477417
0.11791992,-0.97369385,0.23406982
0.22241211,-1.1152954,-0.2637329
-0.36669922,-1.0122681,-0.24298096
-0.23291016,-0.9998169,-0.14483643
-0.14086914,-1.0274048,0.043884277
-0.21142578,-0.93878174,-0.030090332
-0.19335938,-0.75982666,-0.11407471
0.43945312,-1.6245728,0.29412842
-0.45703125,-0.9578247,-0.031066895
-0.11987305,-0.8960571,0.33831787
0.05859375,-1.0232544,0.11151123
-0.05834961,-0.96588135,0.2662964
0.05908203,-0.9976196,0.23944092
0.020751953,-0.9299927,0.09466553
-0.060058594,-1.0354614,-0.032287598
-0.036376953,-1.0427856,-0.19122314
-0.24047852,-1.0234985,-0.15020752
-0.11401367,-0.91851807,-0.008117676
-0.064697266,-0.8533325,-0.13604736
0.1003418,-0.89263916,-0.15948486
-0.024414062,-1.022522,-0.29449463
-0.025878906,-0.8220825,-0.073791504
0.23120117,-0.9780884,-0.109191895
0.2705078,-0.8604126,-0.090148926
0.19799805,-0.8755493,-0.13018799
0.016113281,-0.878479,0.050720215
0.27612305,-1.0305786,-0.1531372
0.3552246,-0.9348755,-0.22784424
0.4020996,-0.84698486,-0.03741455
0.32177734,-0.7974243,0.00018310547
0.20751953,-0.86383057,-0.17926025
0.13208008,-0.98101807,-0.15533447
-0.02758789,-1.2090454,-0.22613525
-0.13330078,-1.1155396,0.009460449
-0.041992188,-1.0130005,-0.06329346
-0.2939453,-0.9429321,0.27801514
-0.2590332,-0.96832275,0.6281128
-0.4501953,-0.7996216,0.29241943
-0.18530273,-0.9331665,0.56951904
-0.08911133,-0.7210083,0.93377686
-0.09399414,-0.8213501,0.86932373
-0.34838867,-0.5952759,0.7965698
-0.46020508,-0.37579346,0.78167725
-0.31958008,-0.35723877,0.89398193
-0.36035156,-0.08062744,0.82489014
-0.720459,-0.07867432,1.3219604
-0.47192383,-0.06719971,1.0568237
-0.5891113,0.12200928,0.88153076
-0.6203613,0.12640381,0.87835693
-0.69091797,0.2514038,1.02948
-0.5505371,0.24334717,0.868103
-0.52783203,0.042175293,0.85614014
-0.38183594,0.17523193,0.9928589
-0.56640625,0.097839355,0.946228
-0.45166016,0.18695068,0.9435425
-0.49121094,0.30926514,0.961853
-0.49267578,0.21258545,0.9039917
-0.53564453,0.07318115,1.0370483
-0.40307617,0.14324951,0.98236084
-0.52734375,0.046813965,0.9501343
-0.58862305,-0.13555908,0.7965698
-0.44799805,-0.43218994,0.8134155
-0.5593262,-0.5317993,0.6864624
-0.6621094,-0.5322876,0.6742554
-0.46142578,-0.706604,0.66937256
-0.15722656,-0.8101196,0.5001831
-0.2084961,-0.8621216,0.61151123
-0.26635742,-0.9595337,0.5338745
-0.22167969,-0.95269775,0.5219116
0.2607422,-0.72540283,0.2477417
0.5722656,-1.2131958,0.32440186
0.5698242,-1.0723267,0.17938232
0.040039062,-0.9356079,-0.06500244
0.49829102,-1.2451782,-0.08087158
0.39282227,-1.1072388,-0.25030518
0.9621582,-1.4680786,0.14886475
-0.84228516,-0.7427368,-0.5354614
0.2421875,-0.97003174,-0.039123535
-0.02709961,-0.9585571,-0.15045166
0.17456055,-0.692688,-0.09454346
-0.119140625,-1.1277466,-0.059631348
-0.064453125,-1.1065063,-0.105285645
-0.053466797,0.18377686,0.22845459
0.27246094,-0.12164307,0.066101074
-0.075927734,-2.0,0.2074585
-0.022460938,-2.0,-0.17584229
0.2548828,-0.16021729,-0.10699463
0.27807617,0.10809326,0.24627686
-0.20776367,-0.20758057,0.04437256
-0.11230469,0.049743652,0.061950684
0.09765625,-0.33599854,-0.29107666
-0.12573242,-2.0,0.50531006
-0.1887207,-1.581604,0.32147217
-0.030273438,-0.20172119,0.14422607
0.36376953,-0.44122314,0.077819824
-0.05126953,-1.2659302,0.24871826
-0.0061035156,-0.65582275,0.08880615
-0.10253906,-0.9168091,0.10467529
0.03100586,-0.909729,0.04901123
0.12768555,-1.3267212,-0.11773682
0.19458008,-2.0,-0.013000488
0.14575195,-1.4580688,0.013366699
-0.05419922,-0.6213989,0.03753662
-0.026123047,-0.22027588,0.00970459
0.040771484,-0.6848755,-0.00079345703
0.114746094,-1.1052856,0.24359131
0.15527344,-1.0667114,0.27459717
-0.021972656,-0.91241455,0.15911865
-0.10986328,-0.8242798,0.043395996
-0.2758789,-0.8230591,0.047302246
-0.48535156,-1.0632935,-0.29278564
-0.5124512,-1.0811157,-0.1296997
-0.46435547,-1.0283813,-0.13555908
-0.3173828,-1.0327759,-0.13067627
-0.21264648,-0.9771118,-0.09698486
-0.014160156,-0.8464966,-0.0881958
0.08325195,-0.8045044,0.32489014
0.28442383,-0.86676025,0.09710693
0.48217773,-0.9492798,0.20794678
0.37597656,-1.0286255,0.050231934
0.37939453,-0.8255005,0.059020996
0.24780273,-0.848938,-0.028381348
-0.11352539,-0.83917236,-0.0068969727
-0.22192383,-0.80255127,0.016784668
-0.26464844,-1.1013794,-0.20709229
-0.42651367,-1.065979,-0.11138916
-0.4416504,-1.1797485,-0.15557861
-0.35961914,-1.0320435,-0.12701416
-0.34399414,-0.9351196,-0.11065674
-0.35546875,-0.80255127,-0.08428955
0.04638672,-0.8015747,-0.13067627
0.033691406,-0.862854,0.12347412
0.55029297,-0.67681885,-0.039611816
0.59106445,-0.99542236,-0.12896729
0.71533203,-1.1213989,-0.024963379
0.49267578,-0.9204712,-0.06744385
0.4116211,-0.7600708,-0.039123535
0.3486328,-0.7554321,-0.006164551
0.29003906,-0.8760376,0.031433105
0.31860352,-0.99224854,-0.01373291
0.07836914,-0.99346924,-0.24249268
-0.39282227,-0.97003174,-0.38848877
-0.19799805,-1.2539673,-0.07086182
-0.13867188,-1.0401001,-0.089660645
-0.2097168,-1.003479,-0.17730713
0.11206055,-0.79107666,-0.18389893
0.011230469,-1.3098755,0.12030029
0.033691406,-0.8674927,0.010681152
-0.021728516,-0.99346924,0.17425537
0.0390625,-0.956604,0.18743896
0.03540039,-0.92193604,0.2538452
-0.09423828,-0.7346802,0.23040771
-0.3930664,-1.1902466,0.11590576
-0.2919922,-1.1397095,0.22796631
-0.38110352,-0.78912354,0.19622803
-0.16113281,-0.88238525,0.090270996
-0.37329102,-1.128479,0.0836792
-0.1665039,-0.92681885,0.11907959
-0.05126953,-0.86260986,0.07952881
0.24169922,-0.95635986,-0.09063721
-0.1003418,-0.9053345,-0.19171143
0.19848633,-0.6292114,-0.49298096
0.39208984,-0.87628174,-0.6358032
0.41088867,-0.69610596,-0.62945557
0.3815918,-0.5059204,-0.8677368
0.37426758,-0.37335205,-0.82403564
0.5222168,-0.2732544,-0.93756104
0.42529297,-0.22174072,-0.9060669
0.5046387,-0.22515869,-0.9060669
0.54418945,-0.2456665,-0.9590454
0.6455078,-0.2695923,-0.9175415
0.5300293,-0.41534424,-0.8394165
0.5,-0.48883057,-0.76104736
0.4501953,-0.6055298,-0.60235596
0.41308594,-0.6917114,-0.5186157
0.31958008,-0.68341064,-0.34698486
0.11254883,-0.69610596,-0.29156494
0.021728516,-0.88116455,-0.2468872
-0.035888672,-0.91363525,-0.04815674
-0.115722656,-0.93463135,-0.040100098
-0.043701172,-1.0947876,-0.07574463
-0.19604492,-0.9163208,-0.026672363
-0.13085938,-0.9385376,-0.15289307
-0.20678711,-0.7949829,-0.010559082
0.0073242188,-0.71588135,-0.19317627
-0.041748047,-0.26470947,0.029968262
0.31274414,-1.6826782,0.06439209
0.35180664,-2.0,-0.26983643
-0.092041016,-2.0,-0.21710205
0.040039062,-1.5618286,0.25531006
0.13793945,0.69647217,-0.44122314
0.0715332,-0.074035645,0.027282715
0.0048828125,-0.02935791,0.02557373
-0.06274414,-0.02911377,-0.12579346
1.1176758,-1.8613892,0.54241943
0.75927734,-2.0,0.030700684
-0.234375,-1.3704224,-0.38824463
0.20458984,-1.0684204,0.06317139
-0.018066406,-0.7756958,0.08148193
0.13085938,-0.78741455,0.070739746
-0.15161133,-0.41656494,0.0119018555
0.0625,-0.9800415,0.2506714
0.27685547,-2.0,0.013366699
0.017822266,-1.7319946,-0.018371582
0.14550781,1.0536499,-0.24664307
0.017089844,-0.035705566,0.0758667
-0.031982422,-0.035461426,0.17889404
-0.24853516,0.030944824,-0.3616333
-1.3740234,-2.0,0.3283081
-0.484375,-1.5317993,0.14788818
-0.4645996,-0.9258423,-0.043518066
-0.41625977,-0.5755005,0.04925537
-0.17944336,-0.6399536,-0.08111572
-0.4645996,-1.1768188,0.027770996
-0.58325195,-1.1213989,0.03314209
-0.4152832,-1.0090942,0.057800293
-0.24926758,-0.91534424,-0.026916504
0.0036621094,-1.1482544,-0.03692627
0.1809082,-0.8814087,-0.0051879883
0.12670898,-1.0669556,0.14935303
-0.028076172,-0.9260864,0.19500732
-0.2536621,-0.989563,0.11053467
-0.14013672,-0.8723755,0.11199951
-0.23950195,-0.756897,0.168396
-0.0715332,-1.90094,-0.17022705
-0.28930664,-0.84503174,-0.0115356445
-0.23144531,-0.88531494,-0.05328369
-0.27539062,-1.0220337,-0.01373291
-0.31225586,-0.95684814,-0.018371582
-0.21606445,-0.92633057,-0.031066895
-0.015625,-1.0115356,0.06854248
0.32788086,-1.1270142,0.4472046
-0.08959961,-1.0012817,0.101745605
-0.020507812,-0.88360596,0.21160889
-0.14160156,-0.98101807,0.20379639
-0.14501953,-0.9898071,0.06951904
0.026855469,-1.0315552,0.08734131
-0.16992188,-1.0999146,0.07122803
-0.25195312,-0.99420166,0.17645264
-0.049072266,-0.84747314,0.07684326
-0.09326172,-0.95977783,0.13421631
-0.19091797,-1.0891724,0.05706787
-0.09057617,-1.0591431,0.10272217
-0.14770508,-1.1729126,0.17254639
-0.4802246,-1.4656372,0.33685303
-0.96655273,-1.6919556,0.05316162
-1.0439453,-0.34259033,-1.1712036
-1.0402832,-0.5918579,-0.83551025
0.19702148,-0.54766846,-0.8430786
-0.5061035,-1.1946411,-0.12384033
-0.82006836,-1.2224731,-0.3706665
-0.74853516,-0.88946533,-0.92388916
-0.5859375,-0.84991455,-0.59161377
-0.40527344,-0.94000244,-0.6338501
-0.13134766,-1.0105591,-0.41461182
-0.11010742,-1.1021118,-0.066711426
-0.25585938,-0.9885864,-0.050842285
-0.30859375,-0.8296509,-0.1687622
-0.59521484,-0.8413696,0.022888184
0.05102539,-0.600647,-0.43585205
-0.19580078,-0.8479614,-0.4343872
0.3564453,-1.9834595,0.22283936
-0.6699219,-0.928772,-0.18682861
-0.011474609,-0.8076782,-0.03253174
0.23144531,-1.1541138,-0.29571533
-0.5456543,-0.76153564,0.18719482
-0.2956543,-1.0925903,0.07318115
-0.32128906,-0.9458618,0.13153076
-0.44726562,-1.071106,0.06829834
-0.22485352,-1.0542603,-0.006652832
-0.3256836,-0.93048096,0.20428467
0.14257812,-1.0689087,0.09320068
0.3149414,-0.84869385,0.0004272461
0.53686523,-0.90216064,0.05633545
0.31811523,-0.82940674,0.04095459
0.4675293,-0.83917236,0.09075928
0.43920898,-0.8633423,0.045837402
0.48876953,-0.8218384,0.026550293
0.52319336,-0.8374634,0.04046631
0.5053711,-0.8284302,0.06951904
0.49047852,-0.8308716,0.057556152
0.48266602,-0.8574829,0.08782959
0.45361328,-0.86724854,0.11248779
0.45117188,-0.9216919,0.16131592
0.3701172,-1.0354614,0.16571045
0.16577148,-0.97125244,0.13397217
-0.119384766,-0.7822876,-0.044006348
-0.28100586,-1.3181763,-0.05670166
-0.27368164,-0.91363525,0.07977295
-0.17626953,-1.0193481,0.04510498
-0.19018555,-1.0359497,0.1383667
-0.20776367,-0.972229,0.04095459
-0.17114258,-0.80133057,-0.050354004
0.22802734,-1.2537231,0.28094482
-0.057128906,-1.1050415,0.097351074
0.0063476562,-0.79522705,0.22576904
0.07861328,-0.9385376,0.27288818
0.08544922,-1.0447388,0.20037842
-0.032714844,-0.88165283,0.26849365
-0.011230469,-1.0288696,0.13323975
-0.27563477,-0.9656372,-0.02960205
0.0078125,-1.0935669,0.24456787
-0.0234375,-0.88604736,-0.045959473
0.04638672,-1.0020142,-0.08013916
-0.13745117,-0.7163696,-0.11480713
-0.05859375,-0.9180298,0.14202881
0.24975586,-1.0671997,-0.1716919
-0.10522461,-1.0774536,-0.13165283
0.07006836,-0.8389282,0.029724121
0.26049805,-0.79571533,-0.37335205
0.05078125,-0.767395,-0.16021729
0.3239746,-1.1238403,-0.41485596
0.05078125,-0.8999634,-0.3255005
-0.046875,-0.88067627,-0.34942627
-0.04711914,-1.210022,-0.18463135
-0.037597656,-1.0847778,-0.0134887695
-0.02368164,-0.9006958,-0.14508057
-0.27807617,-1.4309692,-0.538147
-0.056152344,-1.1602173,-0.14776611
0.2565918,-0.86505127,0.055114746
-0.037841797,-0.8862915,0.034118652
0.17138672,-0.897522,0.044128418
0.13134766,-0.9067993,0.05267334
0.15771484,-1.5337524,-0.5564575
-0.3918457,-0.8452759,-0.11553955
-0.061035156,-0.9710083,0.0033569336
-0.20410156,-1.0835571,0.089782715
-0.12719727,-1.0769653,0.1461792
-0.029296875,-0.96954346,0.034118652
-0.453125,-0.6995239,0.07122803
-0.35107422,-0.95758057,-0.035461426
-0.18823242,-0.96954346,-0.024230957
-0.25097656,-0.97052,-0.025939941
-0.3215332,-0.8843384,0.06097412
-0.20507812,-0.98272705,0.0014038086
-0.29125977,-1.2832642,-0.03765869
-0.0034179688,-0.9661255,-0.34332275
-0.23925781,-1.3115845,-0.38946533
-0.02368164,-1.3118286,-0.19708252
-0.024658203,-1.3660278,-0.13287354
0.1262207,-0.8115845,-0.42559814
0.19311523,-0.6079712,-0.27471924
0.06201172,-0.7000122,-0.13311768
-0.17675781,-0.7776489,0.039733887
-0.10205078,-0.79473877,0.14837646
-0.8195801,-1.3245239,-0.69732666
-0.14282227,-1.010315,0.10345459
-0.27197266,-0.90582275,-0.06427002
-0.27905273,-0.97906494,-0.09527588
-0.29101562,-0.9649048,0.08270264
-0.35888672,-0.9451294,0.016784668
-0.22705078,-0.9727173,-0.020812988
-0.32006836,-1.3560181,0.081970215
-0.12915039,-0.8242798,0.12420654
0.024169922,-0.96051025,0.12689209
