accelX,accelY,accelZ
0.5908203,-0.84747314,-0.020324707
0.57592773,-0.9151001,0.05657959
0.48388672,-0.9295044,0.07489014
0.38012695,-1.0186157,0.04095459
0.26098633,-1.0120239,0.07684326
0.15942383,-0.9578247,0.04144287
0.20776367,-0.88409424,0.11956787
0.109375,-0.91778564,0.08660889
0.1340332,-0.9077759,0.17401123
0.036376953,-0.93756104,0.06756592
0.19116211,-0.8843384,0.2074585
0.27685547,-0.8508911,0.24676514
0.5,-0.97735596,0.66082764
0.10913086,-0.9487915,0.08343506
-0.09106445,-0.8814087,0.20526123
-0.0029296875,-0.8491821,0.36346436
0.042236328,-0.9053345,0.5585327
0.022216797,-0.94659424,0.42132568
0.58862305,-1.1567993,0.3192749
0.2541504,-0.9417114,0.050964355
0.12109375,-0.95318604,-0.05328369
0.66308594,-0.9883423,0.33831787
0.20996094,-0.60772705,0.13128662
0.22290039,-0.82281494,0.22406006
0.24487305,-0.74102783,0.25042725
0.30273438,-0.9204712,0.526062
0.83984375,-1.1221313,0.16668701
0.46801758,-0.7473755,0.15692139
0.6621094,-0.8262329,0.05609131
0.39282227,-0.8545532,0.16033936
0.20605469,-0.7984009,0.29119873
0.3564453,-1.0115356,0.55389404
0.21875,-0.86602783,0.199646
0.37060547,-0.8916626,0.07977295
0.38964844,-1.017395,0.14324951
0.4033203,-0.91485596,0.16522217
0.14257812,-0.92755127,0.036071777
0.26098633,-1.0169067,0.17938232
0.09301758,-0.85479736,0.13861084
0.3869629,-0.9663696,0.28875732
0.52685547,-0.8452759,0.13201904
0.34204102,-0.8584595,0.10076904
0.5024414,-0.91485596,0.22039795
0.22485352,-0.99664307,0.3300171
0.037109375,-0.89727783,0.3427124
0.1665039,-1.0723267,0.3788452
0.27563477,-0.96173096,0.25213623
0.22314453,-0.7625122,0.16741943
0.15917969,-0.9783325,0.21282959
0.09667969,-1.0127563,0.18499756
0.26586914,-1.0093384,0.20501709
0.10522461,-0.9241333,0.13323975
0.2109375,-1.0112915,0.30194092
0.34350586,-0.9326782,0.2189331
0.35375977,-0.9534302,0.19940186
0.38134766,-0.7588501,0.26678467
0.34545898,-0.93414307,0.26385498
0.359375,-0.8032837,0.25579834
0.44189453,-0.8928833,0.30633545
0.36987305,-0.9092407,0.3053589
0.27954102,-0.86505127,0.28607178
0.40429688,-0.8999634,0.30389404
0.3779297,-0.97247314,0.34344482
0.5036621,-1.0059204,0.27142334
0.19042969,-0.77471924,-0.047668457
0.21044922,-0.9014282,0.058532715
0.37573242,-0.96173096,0.18109131
0.23632812,-0.8677368,0.09954834
0.36889648,-0.96343994,0.18377686
0.30249023,-0.8694458,0.12054443
0.5817871,-1.0032349,0.22064209
0.18286133,-0.72369385,0.059509277
0.6501465,-1.2109985,0.37738037
0.17456055,-0.81207275,0.13934326
0.28320312,-0.8682251,0.3283081
0.23754883,-0.9661255,0.199646
0.2763672,-0.83843994,0.27337646
0.2685547,-0.8406372,0.3439331
0.33325195,-0.92315674,0.3204956
0.39672852,-0.9002075,0.24090576
0.52490234,-1.4153442,0.014831543
0.005859375,-0.94415283,0.16741943
0.21655273,-0.8760376,-0.007385254
0.2121582,-0.9663696,-0.054748535
0.1706543,-1.0776978,0.14227295
0.24633789,-0.880188,0.058776855
0.35351562,-0.98443604,0.062194824
0.29736328,-0.90826416,0.22357178
0.4519043,-0.9336548,0.26019287
0.31469727,-0.8440552,0.35247803
0.41674805,-1.000061,0.34906006
0.20507812,-0.73883057,0.2074585
0.6008301,-0.96295166,0.33319092
0.41186523,-0.786438,0.15863037
0.49365234,-0.913147,0.27435303
0.23852539,-1.147522,-0.10723877
0.03173828,-0.71417236,-0.10406494
0.08520508,-1.1843872,0.21331787
0.01953125,-0.8821411,-0.061828613
0.21679688,-1.0305786,0.14959717
0.2529297,-0.98809814,-0.045715332
0.17578125,-1.0735474,0.109802246
0.05883789,-0.8833618,-0.066711426
-0.041992188,-1.0462036,0.059020996
0.5395508,-0.9990845,-0.0413208
0.21166992,-0.91534424,0.29364014
0.33789062,-0.99468994,0.39105225
0.23461914,-0.97613525,0.3060913
0.3059082,-0.7920532,0.26068115
0.17089844,-0.9475708,0.2772827
0.2319336,-1.1279907,0.10687256
0.28442383,-0.8557739,0.32147217
0.25976562,-0.9307251,0.355896
0.34838867,-0.7883911,0.3710327
0.50927734,-0.97247314,0.434021
0.3076172,-0.8899536,0.12591553
0.095214844,-0.91900635,0.18548584
0.21386719,-1.0454712,0.21746826
0.03540039,-0.84332275,0.121032715
0.14990234,-0.927063,0.19158936
0.48608398,-1.0269165,0.35858154
0.26513672,-0.8765259,0.35076904
0.09082031,-0.8526001,0.16546631
0.17456055,-0.9968872,0.23968506
-0.0017089844,-1.0120239,0.1696167
0.2175293,-0.93536377,0.17108154
0.5800781,-0.8826294,0.25091553
0.4296875,-0.9067993,0.31195068
0.44458008,-0.9463501,0.34344482
0.36791992,-0.9024048,0.4208374
0.19848633,-0.7698364,0.15447998
0.2006836,-1.1372681,0.30169678
0.21606445,-0.91412354,0.3143921
0.20605469,-0.84625244,0.39935303
0.1105957,-1.010315,0.45770264
0.17822266,-0.85357666,0.023376465
0.38061523,-0.9973755,0.23114014
0.061523438,-0.9607544,0.10784912
0.07080078,-0.86602783,0.11444092
0.060302734,-0.87677,0.16497803
-0.10522461,-1.149231,0.15814209
-0.122558594,-0.9800415,0.08905029
0.2685547,-1.144104,0.22113037
0.36572266,-1.0527954,-0.045959473
0.5488281,-0.8233032,0.47894287
-0.18237305,-1.0349731,0.19476318
0.39892578,-1.1755981,0.22479248
0.12524414,-0.7871704,0.1593628
0.41845703,-0.7271118,0.21917725
0.35742188,-0.7542114,0.24017334
0.74975586,-0.91973877,0.09954834
0.41235352,-0.9072876,0.2946167
0.29492188,-0.92803955,0.3690796
0.41210938,-0.72735596,0.25238037
0.2783203,-0.9109497,0.39813232
0.23022461,-0.92144775,0.38568115
0.1430664,-0.8386841,0.35980225
0.4855957,-0.99468994,0.055358887
0.48779297,-1.0562134,0.71551514
0.013427734,-0.8909302,0.16912842
0.15234375,-0.7996216,0.21356201
0.23071289,-1.0254517,0.3571167
-0.02368164,-1.0796509,0.38128662
0.18554688,-1.3809204,0.1437378
0.3083496,-0.6333618,-0.1038208
0.85009766,-1.144104,0.35931396
0.3425293,-0.87945557,-0.13311768
0.1015625,-0.97735596,0.18353271
-0.0871582,-1.0342407,0.053894043
-0.024658203,-0.8694458,0.055358887
0.25390625,-1.159729,0.2579956
0.32104492,-0.9248657,0.2880249
0.20385742,-0.8340454,0.24432373
0.057128906,-0.97662354,0.3546753
-0.040771484,-0.9312134,0.36029053
0.036621094,-1.2761841,0.2675171
0.2006836,-0.7854614,0.031677246
0.32299805,-1.1734009,0.34320068
0.25610352,-0.69317627,0.0524292
0.47485352,-1.0181274,0.33148193
0.48461914,-0.8689575,0.14593506
0.33129883,-0.6987915,0.13128662
0.4645996,-1.0005493,0.1161499
0.30029297,-0.8753052,0.25042725
0.28076172,-1.0674438,0.3925171
0.2084961,-0.972229,0.18255615
-0.001953125,-1.003479,0.22625732
0.02368164,-1.0879517,0.009216309
0.10986328,-0.95562744,0.3241577
0.0009765625,-1.067688,0.21746826
0.0703125,-0.8328247,0.0602417
0.21533203,-0.9505005,0.20428467
0.3310547,-0.8760376,0.14129639
0.28295898,-0.9273071,0.184021
0.39648438,-0.97906494,0.14544678
0.42333984,-0.8960571,0.14593506
0.31176758,-0.8792114,0.16400146
0.28588867,-0.92022705,0.1605835
0.2932129,-0.9573364,0.18792725
0.27319336,-1.0054321,0.09442139
0.23632812,-1.0564575,0.14837646
0.061035156,-1.0596313,0.16790771
0.11816406,-1.0505981,0.24822998
0.043945312,-0.91070557,0.26727295
0.3154297,-0.9158325,0.2802124
0.0637207,-0.9168091,0.17327881
0.23779297,-0.85479736,0.10882568
0.26611328,-0.95977783,0.22332764
0.25048828,-0.9338989,0.19256592
0.34277344,-0.85894775,0.11126709
0.38598633,-0.8743286,0.10028076
0.27539062,-0.95391846,0.21795654
0.26049805,-0.97979736,0.031188965
0.27661133,-1.1099243,0.15081787
0.21362305,-1.1694946,0.1720581
0.26464844,-1.1057739,0.29852295
0.12939453,-0.8110962,0.09075928
0.2290039,-0.78497314,0.27337646
0.1538086,-1.0579224,0.24041748
0.375,-0.8196411,0.19622803
0.20361328,-0.82818604,0.1281128
0.42236328,-0.83721924,0.19329834
0.44799805,-1.1416626,0.16009521
0.45410156,-0.99346924,0.105895996
0.3569336,-0.61260986,0.16937256
0.3659668,-0.82818604,0.09710693
0.27368164,-0.82354736,0.039489746
0.42773438,-1.0220337,0.324646
0.4963379,-1.0552368,0.24798584
0.26733398,-1.0303345,0.19696045
0.49682617,-0.9602661,0.21844482
0.16674805,-0.9417114,0.1461792
0.19555664,-0.913147,0.16497803
0.25170898,-0.9402466,0.2645874
0.11254883,-0.8184204,0.20184326
0.19580078,-0.8989868,0.32928467
-0.045898438,-1.0427856,0.23138428
0.096191406,-1.0567017,0.2904663
0.09741211,-1.0073853,0.2880249
0.118652344,-0.86187744,0.074157715
0.28930664,-0.82696533,0.047790527
0.35058594,-1.0881958,0.21185303
0.3125,-1.2009888,0.291687
0.24047852,-0.8616333,0.14935303
0.24169922,-0.7642212,0.18060303
0.33251953,-0.93170166,0.17962646
0.34960938,-1.0354614,0.21160889
0.3178711,-0.9216919,0.19354248
0.35083008,-1.008606,0.1515503
0.22485352,-1.0464478,0.18572998
0.13256836,-1.0344849,0.09442139
0.22485352,-0.9927368,0.25750732
0.25097656,-0.9417114,0.23968506
0.2529297,-0.8533325,0.2802124
0.3395996,-0.8665161,0.37786865
0.4243164,-0.866272,0.4088745
0.4189453,-0.8809204,0.37615967
0.33544922,-0.8430786,0.2958374
0.24829102,-1.0227661,0.19256592
0.24023438,-0.99542236,0.22137451
0.17016602,-0.7905884,0.15032959
0.18798828,-0.98565674,0.260437
0.13330078,-1.036438,0.22381592
0.22363281,-0.9898071,0.2694702
0.1274414,-0.93048096,0.16815186
0.08520508,-1.0562134,0.11834717
0.122558594,-0.9512329,0.086364746
0.22460938,-0.9439087,0.07366943
0.171875,-0.991272,0.10272217
0.36523438,-1.0032349,0.31072998
0.31762695,-0.82476807,0.1227417
0.48706055,-0.9585571,0.21942139
0.47607422,-0.8587036,0.25091553
0.48095703,-0.847229,0.27191162
0.39111328,-0.87945557,0.23797607
0.3491211,-0.88165283,0.2086792
0.38354492,-0.9187622,0.22625732
0.34326172,-0.97613525,0.1864624
0.33691406,-0.9241333,0.12689209
0.09082031,-0.91241455,0.16033936
0.09423828,-0.9492798,0.17572021
0.15893555,-0.9656372,0.1798706
0.02319336,-0.94659424,0.23382568
-0.041503906,-0.9885864,0.14227295
0.05444336,-0.9717407,0.13519287
0.029785156,-1.0149536,0.105651855
0.37109375,-1.078186,0.24261475
0.36865234,-0.8862915,0.22210693
0.6176758,-0.81988525,0.29510498
0.3930664,-0.77008057,0.24798584
0.5046387,-0.8652954,0.32147217
0.51831055,-0.815979,0.35369873
0.42456055,-0.8115845,0.24920654
0.5083008,-0.894104,0.20037842
0.29345703,-0.9402466,0.097839355
0.2734375,-1.0142212,0.19232178
0.04736328,-1.0171509,0.14227295
-0.05517578,-1.0171509,0.24993896
-0.037597656,-0.94610596,0.3234253
0.024658203,-0.9673462,0.30706787
0.026855469,-0.91534424,0.24456787
0.0073242188,-0.9483032,0.4237671
0.060791016,-0.9295044,0.24407959
0.056884766,-0.9089966,0.2904663
0.056152344,-0.9065552,0.07293701
0.171875,-0.94903564,0.36761475
0.17993164,-0.91070557,0.24505615
0.16894531,-1.0105591,0.32537842
0.19018555,-0.9829712,0.18792725
0.24926758,-0.9517212,0.21990967
0.27392578,-0.9224243,0.18060303
0.3347168,-0.93414307,0.24041748
0.3137207,-0.8831177,0.26068115
0.3413086,-0.8928833,0.2218628
0.3491211,-0.88482666,0.27313232
0.26342773,-0.99420166,0.2982788
0.2980957,-0.8711548,0.17352295
0.23876953,-1.0039673,0.43572998
0.48901367,-0.86920166,0.26898193
0.4477539,-0.815979,0.24261475
0.44091797,-0.8118286,0.14276123
0.29956055,-1.0549927,0.20404053
0.24975586,-0.9104614,0.27313232
0.18847656,-1.0110474,0.32391357
0.3798828,-0.88238525,0.2267456
0.24487305,-0.93292236,0.45892334
0.23754883,-0.67974854,0.5170288
0.40405273,-0.6819458,0.44207764
0.39794922,-0.6765747,0.65496826
0.24658203,-0.7185669,0.6264038
0.29785156,-0.64312744,0.5812378
0.3244629,-0.8567505,0.51361084
0.24853516,-0.8735962,0.35980225
0.2758789,-0.9727173,0.38812256
0.4885254,-0.97735596,0.13275146
0.4086914,-0.8279419,0.2555542
0.123535156,-0.7991333,0.25335693
0.38305664,-0.92437744,0.21795654
0.2590332,-0.94073486,0.24432373
0.1081543,-0.93634033,0.23651123
0.17944336,-0.9248657,0.15789795
0.21264648,-0.9541626,0.18133545
0.39794922,-0.94781494,0.2904663
0.49609375,-0.80181885,0.2897339
0.3190918,-0.8880005,0.3217163
0.40185547,-0.86602783,0.35882568
0.46435547,-0.75982666,0.2506714
0.54907227,-0.7937622,0.31585693
0.5288086,-0.7984009,0.28240967
0.43945312,-1.0254517,0.29681396
0.38916016,-0.9038696,0.11077881
0.40234375,-0.95880127,0.20037842
0.03564453,-0.90411377,0.070251465
0.10986328,-1.0335083,0.19866943
0.2824707,-0.9158325,0.29437256
0.27905273,-0.8467407,0.3912964
0.23657227,-0.73321533,0.3944702
0.3112793,-0.73931885,0.40325928
0.3544922,-0.7263794,0.43133545
0.2763672,-1.041565,0.30975342
0.5661621,-0.9763794,0.38787842
0.27001953,-0.9199829,0.070739746
0.5136719,-0.9614868,0.26605225
0.47192383,-0.913147,0.13568115
0.4897461,-0.9002075,0.18963623
0.35742188,-0.81378174,0.121520996
0.16430664,-1.0484009,0.23284912
0.31469727,-1.1948853,0.2765503
0.17919922,-0.8303833,0.16473389
0.25708008,-0.92437744,0.22064209
0.111083984,-1.0320435,0.14520264
0.13256836,-0.9277954,0.070251465
0.15527344,-0.958313,0.0993042
0.15893555,-0.97125244,0.07684326
0.19506836,-0.9649048,0.062438965
0.22924805,-0.94537354,0.059020996
0.35717773,-0.986145,0.23895264
0.37060547,-0.82818604,0.25286865
0.58032227,-1.0359497,0.27020264
0.44311523,-0.9636841,0.3126831
