accelX,accelY,accelZ
0.140625,-0.99786377,0.051696777
0.1081543,-0.98272705,0.051696777
0.079589844,-1.00177,0.09100342
0.08276367,-0.986145,0.11468506
0.23120117,-0.9627075,0.12567139
0.28344727,-0.92681885,0.12542725
0.072509766,-0.9702759,0.18328857
0.055664062,-1.0371704,0.34710693
0.042236328,-0.8904419,0.39349365
-0.21240234,-1.0161743,-0.2432251
-0.119384766,-1.0549927,0.16204834
-0.11669922,-1.3677368,0.2789917
-0.19091797,-0.8936157,0.015563965
0.28027344,-0.6543579,-0.022766113
0.14428711,-0.78619385,0.16375732
-0.68237305,-1.0391235,0.08660889
0.65405273,-1.4175415,0.31732178
0.68969727,-1.0042114,-0.082092285
-0.24389648,-1.6819458,0.35125732
0.25634766,-0.741272,0.17669678
0.16308594,-0.49053955,-0.038391113
-0.39257812,-0.76397705,-0.039123535
0.103027344,-1.3289185,-0.30181885
0.35864258,-1.5769653,0.30975342
-0.020263672,-1.0488892,-0.18389893
-0.06274414,-0.60162354,-0.031311035
-0.24536133,-0.68292236,-0.17706299
0.03466797,-1.1841431,0.25115967
0.44311523,-0.89727783,0.050720215
0.47827148,-1.2322388,0.17108154
-0.24267578,-1.1658325,0.38909912
-0.03540039,-0.35699463,0.06878662
0.20288086,-0.8220825,0.30194092
-0.103515625,-1.052063,0.15496826
0.083984375,-0.7883911,-0.4824829
-0.080566406,-1.2251587,-0.7905884
0.36645508,-1.2947388,0.47821045
-0.3540039,-0.91485596,-0.33892822
0.044921875,-0.98150635,-0.10040283
0.19824219,-0.9795532,0.08660889
-1.177002,-1.0527954,-0.31329346
0.48046875,-0.85601807,-0.5210571
1.1916504,-1.1074829,0.3283081
-0.5854492,-1.364563,0.2489624
0.10424805,-0.4668579,-0.21026611
0.8708496,-0.8467407,0.12664795
0.1315918,-0.4492798,-0.046203613
0.40722656,-1.6121216,0.4257202
-0.10986328,-2.0,-0.06573486
0.58374023,-2.0,-0.011779785
-0.8371582,-0.5574341,-0.90753174
0.35888672,0.6305542,-0.12774658
0.07104492,0.16571045,0.089782715
-0.21850586,-0.394104,-0.012512207
0.60961914,-0.077697754,-0.41705322
0.87719727,-2.0,1.999939
-1.1101074,-1.2786255,-0.7437134
0.5078125,-2.0,0.6185913
-0.28833008,-1.1868286,-0.27789307
-0.103027344,-0.3225708,0.08319092
-0.28466797,-0.15289307,-0.26080322
-0.10522461,-0.6409302,-0.17828369
0.13500977,-1.2092896,0.70477295
-0.42407227,-0.90997314,-0.004211426
0.37475586,-0.66656494,0.105651855
0.4580078,-0.87677,-0.027893066
-0.20507812,-1.3272095,0.48138428
0.25341797,-0.788147,0.049743652
0.11669922,-0.7510376,0.3866577
-0.2902832,-0.5701294,0.08831787
-0.16113281,-0.7102661,-0.3110962
0.38354492,-2.0,0.44818115
-0.27294922,-1.2359009,-0.03692627
-0.1328125,-0.6902466,0.085632324
0.16259766,-0.32867432,-0.10015869
-0.04638672,-1.0640259,0.06390381
-0.5773926,-0.9673462,0.11785889
0.66308594,-0.9961548,-0.19781494
0.48828125,-0.925354,-0.1104126
-0.58081055,-0.8999634,0.009216309
0.23803711,-0.45440674,0.04046631
0.33081055,-0.7959595,0.22235107
-0.07495117,-1.2017212,0.3463745
-0.1352539,-1.2713013,-0.22857666
0.82373047,-1.0654907,-0.10308838
-0.20874023,-1.5007935,0.22528076
-0.1315918,-0.53082275,-0.2649536
0.19384766,-0.60528564,-0.008361816
-0.28710938,-1.2244263,-0.077697754
-0.07446289,-0.69781494,-0.33355713
-0.2277832,-1.0933228,0.022399902
0.48876953,-1.0147095,-0.2901001
0.5673828,-1.498352,0.09613037
-0.044189453,-0.9846802,0.02142334
0.4453125,-0.723938,0.029968262
0.31958008,-0.71588135,-0.10626221
-0.0078125,-0.7883911,-0.3496704
-0.04736328,-1.2227173,-0.054992676
-0.4555664,-0.89630127,-0.20855713
0.1105957,-0.8440552,-0.109191895
0.0017089844,-0.39068604,-0.20220947
0.36743164,-0.78448486,-0.1404419
-0.32080078,-1.1235962,0.014831543
0.35546875,-0.26202393,-0.46246338
0.64331055,-1.3938599,-0.44683838
-0.13916016,-0.9944458,-0.6436157
0.83496094,-1.2393188,-0.2962036
-0.045654297,-1.5010376,-0.3513794
0.068847656,-0.9331665,0.0018920898
-0.07104492,-0.8533325,0.12689209
0.022949219,-1.0234985,0.10882568
-0.06713867,-1.0447388,0.20404053
-0.12182617,-0.97247314,0.20648193
-0.024414062,-0.9639282,0.21966553
-0.03515625,-0.958313,0.21722412
-0.13305664,-0.9470825,0.23260498
-0.048095703,-1.046936,0.17230225
0.115722656,-0.90167236,0.070007324
0.061279297,-0.87579346,0.021911621
0.041259766,-1.0061646,-0.0025024414
0.47875977,-1.076477,-0.27716064
0.7775879,-1.0249634,-0.67266846
0.68188477,-1.1062622,-0.64068604
0.54833984,-0.7192993,-0.5198364
0.50756836,-0.5383911,-0.5003052
0.77783203,-0.5523071,-0.5549927
0.63720703,-0.65045166,-0.54571533
0.5732422,-0.41680908,-0.4505005
0.36279297,-0.61187744,-0.09039307
0.08862305,-0.2625122,-0.16851807
0.53344727,-0.58477783,-0.20611572
0.9020996,-1.7266235,-0.34649658
0.2536621,-0.88946533,-0.54937744
0.21899414,-1.1411743,0.10443115
0.08154297,-0.47198486,-0.10406494
-0.05078125,-0.51519775,-0.175354
0.06567383,-1.2092896,0.16082764
0.8718262,-1.1707153,-0.016906738
0.41625977,-1.0903931,-0.10089111
0.1743164,-1.0061646,0.27581787
0.3305664,-0.63165283,0.1930542
0.20019531,-0.614563,0.105163574
-0.18725586,-1.1570435,0.53460693
0.041503906,-0.9663696,0.13275146
0.32128906,-1.1865845,0.039245605
0.7841797,-0.630188,-0.18389893
-0.016845703,-1.2749634,-0.034484863
-0.02709961,-0.86016846,-0.05206299
0.11303711,-1.0371704,0.1605835
-0.3623047,-1.072815,0.06414795
0.103515625,-1.0176392,0.16253662
0.30371094,-0.99468994,-0.1260376
0.47436523,-0.9558716,-0.0154418945
-0.23339844,-1.2276001,0.3065796
-0.08959961,-0.5054321,0.13665771
0.20361328,-0.9949341,0.4310913
0.040283203,-0.9612427,0.2592163
0.3239746,-1.0889282,0.49725342
0.099121094,-0.9829712,-0.27789307
-0.10522461,-0.6279907,-0.6917114
0.5449219,-2.0,0.87957764
0.31640625,-0.60479736,-0.18048096
-0.0949707,-0.7998657,0.23529053
-0.38867188,-1.255188,0.22698975
-0.6164551,-1.0930786,0.2333374
-0.30664062,-0.7210083,-6.1035156e-05
0.15307617,-1.0664673,0.17889404
0.13452148,-0.8599243,0.13494873
-0.47045898,-1.0339966,0.14935303
-0.119384766,-0.8279419,-0.11431885
-0.15820312,-1.2051392,0.0033569336
-0.33642578,-0.84161377,-0.2979126
-0.16186523,-0.9639282,-0.040100098
0.22998047,-1.7153931,0.1408081
0.5275879,-1.1101685,0.3505249
-0.51171875,-0.6724243,0.3217163
-0.12158203,-0.60406494,-0.32281494
0.2770996,-1.4661255,0.29730225
-0.34277344,-0.7542114,-0.23052979
-0.09033203,-0.6609497,-0.59259033
-0.091796875,-0.95513916,-0.8711548
-0.0063476562,-1.019104,-0.8765259
0.1628418,-1.1697388,-0.44171143
-0.048095703,-0.6555786,-0.45025635
0.29638672,-0.6304321,-0.18170166
0.091796875,-0.803772,-0.4212036
1.2041016,-1.7803345,0.06048584
0.2854004,-0.9631958,-0.19683838
0.34960938,-0.7991333,-0.22369385
0.842041,-0.7319946,-0.54107666
0.25024414,-0.90826416,-0.44537354
-2.0,-2.0,0.13885498
-0.06738281,-0.33624268,0.54852295
-0.42114258,-0.87677,0.7272339
-0.13891602,-0.8574829,0.39569092
0.5024414,-1.5376587,1.1969604
-0.69555664,-0.49517822,0.0758667
-0.12524414,-0.86724854,0.15570068
0.33520508,-1.0830688,0.3463745
-0.595459,-0.6734009,-0.36212158
0.15454102,-1.1672974,0.35980225
-0.3095703,-0.87823486,-0.20953369
-0.013427734,-1.0261841,0.14178467
-0.09765625,-0.800354,0.10369873
-0.022705078,-0.68585205,0.16546631
0.35180664,-1.4502563,0.3793335
-0.04711914,-0.63897705,0.04534912
0.39331055,-1.331604,0.42767334
-0.17749023,-0.6165161,0.0914917
0.26831055,-0.7090454,0.05633545
0.3256836,-1.1333618,0.43206787
0.12890625,-0.708313,0.07366943
0.7446289,-1.2485962,0.40252686
0.22314453,-0.8584595,-0.047180176
-0.4560547,-1.3457642,-0.28399658
0.5839844,-0.8635864,0.120788574
-0.024658203,-1.0835571,-0.14019775
-0.096191406,-0.77789307,-0.10821533
0.6628418,-0.88604736,-0.07183838
-0.0036621094,-0.8521118,-0.2781372
0.40771484,-0.4751587,-0.25372314
0.21435547,-0.1638794,-0.1963501
0.57910156,-0.9492798,0.14300537
0.54052734,-0.5237427,-0.28668213
0.43017578,-0.5405884,-0.2498169
0.1706543,-1.4568481,-0.59576416
0.7487793,-0.9470825,-0.51885986
0.68725586,-2.0,-1.2996216
1.0146484,-1.5305786,-0.4109497
0.1015625,-1.2495728,-0.34942627
0.3400879,-0.9246216,-0.15118408
0.39257812,-0.7991333,-0.2546997
0.17944336,-0.47784424,-0.09820557
-0.026855469,-0.042541504,-0.14068604
0.18774414,0.017028809,-0.29986572
0.49731445,-0.7625122,-0.3196411
-0.02319336,-0.25445557,0.121276855
-0.103027344,-0.16827393,-0.41192627
1.2246094,-1.7119751,-0.3098755
-0.13256836,-0.8201294,-0.43218994
0.97998047,-1.4424438,-0.24249268
0.32543945,-2.0,-0.49005127
0.83251953,-1.7202759,-0.38848877
0.32543945,-1.5440063,-0.19830322
0.27978516,-1.2229614,-0.02130127
0.12988281,-0.9077759,-0.09527588
0.50268555,-0.36895752,-0.09625244
0.47753906,-0.5371704,-0.02935791
-0.1184082,-0.4746704,0.16986084
-0.072265625,-0.2954712,-0.051818848
0.2368164,-0.60235596,-0.23028564
0.25927734,-1.866272,0.07635498
-0.03149414,-1.135315,0.12615967
-0.017089844,-0.96099854,-0.0791626
0.18115234,-0.60284424,-0.16021729
-0.10424805,-0.6670532,-0.08135986
-0.19750977,-1.3240356,0.23040771
0.12402344,-1.281311,0.11248779
0.13647461,-0.88604736,0.09490967
0.36669922,-1.1880493,-0.08453369
-0.3876953,-0.9717407,0.13543701
0.103759766,-0.53619385,-0.0960083
0.14135742,-1.279602,0.49676514
-0.28955078,-0.87213135,-0.038146973
0.37304688,-1.1878052,-0.4512329
-0.028564453,-0.94244385,0.1828003
-0.18017578,-1.0630493,-0.17315674
0.043701172,-1.0432739,-0.1338501
-0.024658203,-0.753479,0.066589355
-0.29614258,-0.75567627,-0.09112549
0.11230469,-0.81451416,-0.028381348
0.32006836,-1.0108032,-0.13018799
0.17944336,-1.2839966,0.058044434
-0.080322266,-0.8164673,0.10467529
0.12133789,-0.519104,0.14276123
0.16625977,-1.0147095,0.34783936
-0.1928711,-1.0869751,0.3295288
0.2668457,-1.0288696,0.24188232
-0.018066406,-1.0276489,0.22528076
-0.20288086,-0.7107544,-0.2727661
0.32861328,-1.1531372,0.5258179
-0.045654297,-0.6331177,0.012634277
-0.29711914,-1.1511841,0.15570068
0.10839844,-1.1282349,0.24627686
-0.19628906,-1.0862427,0.1383667
0.390625,-0.96954346,0.02947998
0.3203125,-1.0786743,-0.02911377
-0.13793945,-1.0964966,0.2670288
0.016845703,-0.62701416,-0.17633057
0.01586914,-1.0188599,0.17962646
-0.040771484,-0.7647095,-0.47686768
0.5332031,-1.4158325,-0.38165283
-0.16796875,-1.0686646,-0.14752197
-0.23950195,-0.83380127,-0.28814697
-0.068847656,-1.0620728,-0.2354126
0.1159668,-0.98223877,0.04046631
-0.28881836,-1.0015259,-0.105529785
-0.64038086,-0.9212036,-0.21783447
0.115722656,-1.1087036,-0.0115356445
0.5834961,-0.97613525,0.14886475
0.12963867,-0.89678955,0.11956787
0.27246094,-0.7595825,0.08441162
0.4116211,-1.0542603,0.25091553
-0.031982422,-0.9060669,0.22259521
0.24072266,-0.8989868,0.2609253
0.103027344,-1.2468872,0.5458374
-0.04248047,-1.3677368,-0.04937744
0.21362305,-0.68756104,-0.26519775
0.22924805,-1.1409302,-0.18487549
-0.30297852,-1.0349731,0.024108887
0.046875,-0.59161377,-0.175354
0.11450195,-1.0654907,0.25091553
-0.4963379,-1.0952759,0.28826904
-0.2475586,-0.8467407,-0.16558838
1.1816406,-1.3274536,0.23236084
-0.41503906,-1.5391235,0.19500732
-0.122802734,-0.6240845,0.13885498
0.06738281,-0.37408447,0.14324951
-0.15551758,-1.1362915,0.42889404
0.037353516,-1.1170044,0.03729248
0.25854492,-1.0352173,0.04559326
0.10083008,-0.548645,-0.13018799
0.030273438,-1.4502563,0.19622803
-0.23999023,-0.6460571,-0.31427002
-0.18554688,-1.0115356,0.17669678
-0.18139648,-1.046936,0.18450928
-0.27563477,-0.72125244,-0.33843994
1.5163574,-1.8294067,0.46868896
-0.3540039,-1.2739868,-0.09259033
0.083740234,-0.7786255,0.0099487305
0.039794922,-0.663147,0.1552124
-0.25463867,-0.7710571,-0.01763916
-0.03100586,-1.8643188,-0.08258057
0.41381836,-0.9636841,-0.045959473
-0.24975586,-0.91363525,-0.10333252
0.22631836,-0.61724854,-0.19317627
0.39501953,-1.1560669,-0.28302002
0.018066406,-1.1350708,-0.2107544
0.015625,-0.96466064,0.10394287
-0.11987305,-1.4368286,0.65667725
0.22949219,-1.0813599,0.32611084
-0.34326172,-0.7737427,0.25164795
0.0029296875,-0.62872314,0.324646
0.62231445,-0.94976807,0.36566162
0.6982422,-1.4077759,0.5499878
-0.43481445,-1.352356,-0.0635376
-0.033447266,-0.8362427,0.19378662
-0.09033203,-0.9729614,-0.409729
-0.17089844,-0.91900635,0.15570068
0.0078125,-1.0010376,0.1473999
-0.30688477,-1.053772,0.21478271
-0.087646484,-0.9048462,0.028747559
0.09375,-1.0769653,0.25213623
-0.106933594,-1.0230103,-0.08355713
0.8029785,-0.9373169,0.093688965
0.06713867,-1.4146118,0.25164795
0.041992188,-0.68463135,0.058776855
0.1850586,-0.77056885,0.077819824
-0.18798828,-0.9522095,0.18695068
0.100097656,-0.9480591,-0.22955322
0.05029297,-1.6326294,-0.08868408
0.10546875,-0.7686157,0.14276123
-0.47216797,-0.7954712,-0.18927002
-0.09643555,-1.2627563,0.048034668
0.068359375,-0.8765259,0.18182373
-0.27954102,-1.0015259,0.038024902
-0.25756836,-1.0112915,0.06365967
-0.375,-0.9343872,-0.020324707
-0.1484375,-0.9561157,-0.12652588
0.17407227,-1.2129517,0.08807373
0.083496094,-0.692688,0.05633545
0.33251953,-1.4898071,0.17449951
0.23706055,-0.72442627,0.10809326
0.15063477,-0.8970337,-0.06695557
0.2277832,-0.913147,0.14471436
0.044189453,-1.1221313,0.1930542
0.123535156,-1.0286255,0.10809326
0.16625977,-0.9590454,0.08880615
0.07128906,-1.2009888,-0.23394775
-0.24511719,-0.88848877,-0.33746338
