accelX,accelY,accelZ
-0.068359375,-0.43414307,0.098083496
-0.24243164,-0.56134033,-0.04815674
0.40161133,-1.750061,-0.2041626
0.3864746,-2.0,0.010925293
0.20776367,-1.4295044,-0.24835205
0.06201172,0.08880615,0.12957764
-0.0007324219,0.14178467,0.0602417
0.064453125,-0.13067627,0.0004272461
-0.7297363,-2.0,-0.3069458
0.15649414,-1.2959595,0.18719482
0.16479492,-0.8115845,-0.16778564
-0.24731445,-0.43634033,-0.3147583
0.5187988,-0.61138916,-0.24542236
0.1538086,-0.51641846,-0.021057129
0.03149414,-0.6448364,-0.28497314
0.47436523,-0.8284302,-0.5444946
0.56225586,-0.9331665,-0.6279907
0.48950195,-0.9663696,-0.6851196
0.39404297,-0.7156372,-0.7095337
0.5397949,-0.8604126,-0.78692627
0.5812988,-1.0977173,-0.7481079
0.40014648,-0.9385376,-0.47296143
0.3088379,-0.72076416,-0.4241333
0.23242188,-0.7354126,-0.29937744
0.17700195,-0.88116455,-0.1350708
-0.04272461,-1.0003052,0.13641357
-0.18188477,-0.92974854,0.113220215
-0.05078125,-0.9031372,0.05657959
-0.020507812,-1.0598755,0.018249512
-0.008300781,-0.89801025,-0.055480957
0.030517578,-0.96759033,-0.015686035
0.21386719,-0.8735962,-0.16436768
0.07006836,-0.9241333,-0.1765747
0.26513672,-0.9902954,-0.26055908
0.56274414,-1.0498657,-0.5327759
1.074707,-1.1262817,-0.9763794
0.39453125,-1.0664673,-0.6951294
0.50024414,-1.0501099,-0.5557251
0.34570312,-0.8115845,-0.37921143
0.12133789,-0.5977173,-0.13116455
-0.10083008,-0.4512329,-0.06427002
-0.03515625,-0.11138916,-0.059631348
0.083984375,-1.1768188,-0.21392822
-0.041259766,-0.87286377,-0.25274658
0.04663086,-0.75323486,0.06097412
0.022460938,-0.14093018,0.032165527
-0.14819336,-2.0,0.30096436
-0.11645508,-2.0,-0.347229
0.38476562,-0.78204346,-0.21221924
-0.30273438,0.61932373,-0.097717285
0.013183594,-0.300354,0.13079834
0.0024414062,0.019958496,0.023376465
-0.32250977,-2.0,-0.9673462
-0.20458984,-1.2781372,-0.7383423
0.6508789,-0.8970337,0.046325684
-0.015136719,-0.28448486,-0.27545166
0.018310547,-0.19390869,-0.35845947
0.3215332,-0.60235596,-0.66290283
0.33789062,-0.8152466,-0.7949829
0.5444336,-0.67559814,-0.7842407
0.765625,-0.616272,-0.8479614
0.5246582,-0.47662354,-0.864563
0.44702148,-0.44537354,-0.8262329
0.52124023,-0.6375122,-0.66534424
0.5090332,-0.78009033,-0.6609497
0.56811523,-1.2590942,-0.6140747
0.21923828,-0.6567993,-0.29229736
0.06665039,-0.6433716,-0.07598877
0.2548828,-1.125061,-0.15460205
0.04321289,-0.80792236,-0.033996582
-0.060058594,-0.82110596,0.038024902
-0.07128906,-1.0874634,0.08099365
-0.11035156,-0.96051025,0.17181396
-0.029296875,-0.9248657,0.015319824
-0.06762695,-1.029602,0.038024902
-0.099365234,-0.8674927,0.028259277
0.08911133,-0.93048096,-0.05987549
0.09814453,-0.8821411,-0.1729126
0.11425781,-0.9780884,-0.25933838
0.18481445,-0.8440552,-0.33013916
0.43676758,-0.7498169,-0.51446533
0.873291,-1.0122681,-0.91607666
0.9250488,-1.038147,-0.92633057
0.48583984,-0.79644775,-0.6970825
0.564209,-0.8640747,-0.6709595
0.3239746,-0.69610596,-0.42266846
0.13623047,-0.59454346,-0.29718018
-0.063964844,-0.27667236,-0.18170166
0.110839844,-0.4229126,0.055847168
0.15673828,-1.2007446,-0.21881104
0.040283203,-0.65460205,-0.101379395
-0.3630371,-0.15362549,-0.07940674
-0.08959961,-2.0,0.16522217
-0.29785156,-1.9666138,-0.27960205
0.44433594,-0.29107666,-0.10430908
-0.7019043,0.41448975,0.048034668
0.49975586,-0.25250244,0.15252686
-0.39233398,0.08026123,-0.23687744
0.52978516,-2.0,-0.7803345
-0.016113281,-0.86260986,-0.5942993
0.19824219,-0.70513916,-0.22320557
0.92089844,-0.3814087,-0.39605713
0.023925781,-0.76885986,-0.32989502
0.9748535,-0.6914673,-0.59161377
0.62890625,-0.45025635,-0.5774536
0.798584,-0.50787354,-0.7258911
0.4724121,-0.72735596,-0.6890259
0.4008789,-0.8328247,-0.59161377
0.61376953,-1.0974731,-0.44683838
0.29174805,-1.0029907,-0.2625122
0.12915039,-0.82159424,-0.1687622
0.18066406,-0.9216919,-0.19342041
0.011962891,-0.9512329,-0.051818848
0.0625,-0.7542114,-0.12872314
0.011230469,-0.9541626,-0.03765869
0.10058594,-0.96173096,-0.07476807
0.060546875,-0.94122314,-0.058654785
0.2409668,-0.95684814,-0.13433838
-0.012207031,-0.9595337,-0.24615479
0.15161133,-0.8665161,-0.36431885
0.31079102,-1.0359497,-0.42242432
0.44433594,-1.0491333,-0.90802
0.55029297,-1.1514282,-0.92974854
0.33325195,-0.78302,-0.645813
0.49267578,-0.97662354,-0.5564575
0.1694336,-0.81573486,-0.40093994
0.22363281,-0.70391846,-0.17852783
-0.044677734,-0.3040161,-0.007873535
0.14355469,-0.07281494,-0.10479736
0.09887695,-0.52130127,-0.17706299
-0.29541016,-1.154602,-0.21295166
0.11621094,-2.0,0.043395996
0.111572266,-2.0,-0.21295166
0.30810547,-0.58673096,-0.089904785
-0.20043945,0.32928467,0.018737793
-0.014892578,-0.14190674,0.0927124
-0.03930664,-0.12042236,-0.30499268
0.58618164,-2.0,-0.64630127
-0.85668945,-0.93829346,-0.6824341
0.54907227,-0.88409424,-0.16656494
0.068359375,-0.6721802,-0.27301025
0.2800293,-0.9343872,-0.5064087
0.1550293,-0.8447876,-0.6289673
0.2536621,-1.0515747,-0.522522
0.25585938,-1.138977,-0.35528564
0.17114258,-1.4714966,-0.3640747
-0.048583984,-1.1660767,0.10491943
0.051513672,-0.5940552,-0.054748535
0.04321289,-1.0300903,-0.026184082
0.026367188,-1.0872192,0.10272217
-0.04296875,-0.784729,-0.006164551
0.056884766,-1.0281372,0.012145996
-0.010498047,-0.87677,-0.08135986
0.053955078,-0.8855591,-0.07550049
0.1274414,-0.92510986,-0.1963501
0.28759766,-0.96881104,-0.32696533
0.17553711,-0.82403564,-0.36065674
0.31567383,-1.0366821,-0.57940674
0.37573242,-0.9336548,-0.9290161
0.61279297,-1.133606,-1.0230103
0.47436523,-0.97442627,-0.8464966
0.24389648,-1.0527954,-0.5120239
0.21289062,-0.83795166,-0.3255005
0.14404297,-0.6345825,-0.23590088
-0.039794922,-0.23736572,-0.059631348
0.053955078,0.07244873,-0.14752197
0.1652832,-0.48980713,-0.26593018
0.026123047,-2.0,-0.009094238
0.009521484,-2.0,-0.46002197
-0.09350586,-0.944397,-0.2420044
0.0017089844,0.56707764,-0.024230957
-0.076171875,-0.19927979,0.101745605
0.08496094,0.04095459,-0.07647705
0.15332031,-2.0,-0.6572876
0.13598633,-1.1109009,-0.41290283
0.0847168,-0.84503174,-0.23394775
0.022949219,-0.53009033,-0.704895
0.2319336,-1.0288696,-0.5757446
0.34179688,-0.753479,-0.89312744
0.23071289,-0.6502075,-0.9014282
0.1550293,-0.6453247,-0.723938
0.3647461,-0.62286377,-0.70098877
0.43041992,-0.7119751,-0.7737427
0.26391602,-1.303772,-0.78302
0.13452148,-0.85357666,-0.3184204
0.15356445,-0.6091919,-0.08795166
0.041992188,-1.1091919,-0.12530518
0.106933594,-0.96051025,-0.11383057
0.17504883,-0.7769165,-0.08404541
0.08959961,-0.90631104,-0.12896729
0.15454102,-0.90289307,-0.20953369
0.114746094,-0.9199829,-0.19439697
0.040527344,-0.95147705,-0.27398682
0.1899414,-0.9221802,-0.4319458
0.24487305,-0.8587036,-0.5496216
0.38623047,-1.0244751,-1.135315
0.5073242,-0.9324341,-1.1633911
0.36450195,-0.88360596,-0.928772
0.23144531,-0.9421997,-0.66363525
0.18920898,-0.75665283,-0.39971924
0.1003418,-0.5654907,-0.18951416
0.10473633,-0.47052002,-0.19342041
0.0009765625,-0.11016846,-0.11968994
0.1171875,-0.75738525,-0.10455322
-0.11254883,-0.61553955,-0.11993408
0.2133789,-2.0,-0.17681885
0.07495117,-2.0,-0.48565674
0.12963867,-0.78302,-0.348938
-0.05078125,0.4142456,-0.14727783
-0.0625,-0.22662354,0.061706543
0.036376953,0.016052246,0.008972168
-0.19360352,-2.0,-0.6487427
0.042236328,-1.1572876,-0.6165161
0.088378906,-0.8242798,-0.21539307
0.14672852,-0.585022,-0.503479
0.14648438,-0.67803955,-0.4985962
0.17895508,-0.7642212,-0.7293091
0.22875977,-0.7493286,-0.71588135
0.19140625,-0.7407837,-0.6253052
0.2109375,-1.295227,-0.8123169
0.32080078,-1.4649048,-0.6572876
0.22827148,-0.47003174,-0.054504395
-0.114746094,-0.6502075,-0.13555908
0.14892578,-1.3823853,-0.20172119
0.04711914,-0.7764282,0.019226074
-0.05029297,-0.9260864,0.005554199
0.041992188,-1.0090942,-0.08013916
0.03857422,-0.8814087,-0.020568848
0.107910156,-0.94000244,-0.15045166
0.23730469,-0.9429321,-0.17755127
0.16015625,-0.77667236,-0.26617432
0.12060547,-0.60943604,-0.34283447
0.6928711,-1.1253052,-1.0974731
0.4716797,-1.0339966,-0.93463135
0.4638672,-0.8584595,-0.84991455
0.33496094,-0.9043579,-0.6421509
0.2631836,-0.8101196,-0.44488525
0.21704102,-0.6211548,-0.28277588
0.109375,-0.3982544,-0.19244385
-0.13500977,-0.29205322,-0.06036377
0.0546875,-0.944397,-0.19439697
0.22973633,-0.30523682,-0.20025635
-0.05078125,-1.2896118,0.011657715
0.09741211,-2.0,-0.19244385
0.13623047,-1.5779419,-0.32476807
0.16577148,-0.074279785,0.03387451
-0.10839844,0.3546753,-0.05206299
0.0063476562,-0.22320557,0.08856201
0.01977539,-0.42608643,-0.2366333
0.39160156,-1.9602661,0.1852417
0.4675293,-1.0525513,-0.5276489
-0.16723633,-0.5335083,-0.22515869
-0.024414062,-0.28375244,0.008972168
0.18676758,-0.54278564,-0.16705322
0.34155273,-0.894104,-0.58917236
0.2746582,-1.0317993,-0.7151489
0.30273438,-2.0,-1.050354
-0.0107421875,-0.89849854,0.12542725
0.00390625,-0.29107666,-0.1807251
-0.013916016,-1.3230591,-0.24591064
0.028808594,-1.1072388,0.0028686523
0.12841797,-0.69317627,-0.23101807
0.012451172,-1.1062622,-0.11529541
0.032958984,-0.9546509,-0.17681885
0.001953125,-0.8833618,-0.17852783
-0.021972656,-0.9819946,-0.22418213
0.068359375,-0.881897,-0.30767822
0.12939453,-0.76446533,-0.3706665
0.06298828,-0.77349854,-0.4710083
0.11645508,-0.67803955,-0.7073364
0.091552734,-0.83551025,-0.87872314
0.16967773,-0.70880127,-1.2026978
0.018310547,-0.69317627,-1.1763306
0.23632812,-0.8399048,-0.9741821
0.1953125,-0.7385864,-0.6760864
0.12963867,-0.59576416,-0.45855713
0.053710938,-0.49420166,-0.25616455
0.060791016,-0.4505005,-0.10992432
0.047851562,-0.20172119,-0.1560669
-0.030761719,-0.7529907,-0.21368408
-0.18603516,-0.5274048,0.08392334
0.6125488,-2.0,-0.52227783
0.04272461,-2.0,-0.5935669
-0.033203125,-0.62164307,-0.14141846
-0.14990234,0.7262573,-0.15264893
-0.001953125,-0.42364502,0.09832764
-0.107177734,0.23577881,0.03778076
0.5036621,-2.0,-1.0479126
-0.13330078,-0.9180298,-0.5095825
0.30615234,-0.66070557,-0.49249268
-0.04711914,-0.5142212,-0.58135986
0.26708984,-0.89508057,-0.6724243
0.13427734,-0.66485596,-0.91485596
0.12158203,-0.73638916,-1.0808716
0.24072266,-0.7600708,-1.0093384
0.33398438,-0.5557251,-0.7620239
0.033203125,-0.42144775,-0.44903564
0.06201172,-0.40997314,-0.3850708
0.1508789,-0.8135376,-0.6680298
0.2824707,-1.9092407,-0.80303955
0.07885742,-0.7756958,-0.23150635
-0.10229492,-0.5647583,-0.04083252
0.103271484,-1.3352661,-0.36724854
-0.045410156,-0.8501587,-0.1572876
0.12524414,-0.7871704,-0.1585083
-0.0390625,-1.0061646,-0.08502197
0.09277344,-0.85528564,-0.17193604
0.10083008,-0.8718872,-0.12188721
0.13330078,-0.960022,-0.19415283
0.12890625,-0.92266846,-0.2637329
0.17333984,-1.1799927,-0.4212036
0.67089844,-1.1253052,-1.0508423
0.48266602,-1.1121216,-0.71221924
0.34716797,-1.0603638,-0.5913696
0.30541992,-0.97320557,-0.46832275
0.18383789,-0.6819458,-0.2630005
0.044189453,-0.48516846,-0.22955322
-0.083740234,-0.38604736,0.08929443
0.072753906,-0.38311768,-0.14239502
0.19018555,-0.4788208,-0.1765747
-0.26489258,-1.4505005,-0.07232666
0.092041016,-2.0,-0.07989502
0.045898438,-0.78131104,-0.28790283
-0.09375,0.37005615,0.15203857
-0.026611328,-0.13092041,0.058776855
0.0009765625,-0.08502197,-0.08477783
0.22851562,-2.0,-0.7979126
0.21118164,-0.90045166,-0.60601807
0.13671875,-0.96661377,-0.37921143
0.043701172,-0.73638916,-0.59991455
-0.17285156,-0.82525635,-0.56744385
0.115722656,-0.7127075,-0.53741455
0.25830078,-0.76568604,-0.69366455
0.39038086,-1.4597778,-0.7515259
0.109375,-1.3823853,-0.3423462
0.21826172,-0.5088501,-0.16558838
0.025390625,-0.72320557,-0.117004395
0.010986328,-1.234436,-0.39337158
-0.022705078,-0.8789673,0.07293701
-0.01928711,-0.9439087,-0.10650635
-0.008300781,-1.029602,-0.121398926
-0.02709961,-0.9421997,-0.0725708
0.040771484,-0.9595337,-0.11871338
0.0061035156,-0.92559814,-0.18048096
0.041748047,-0.7671509,-0.2720337
0.048095703,-0.8814087,-0.33917236
0.119628906,-1.0254517,-0.67315674
0.25439453,-1.0698853,-1.1448364
0.2915039,-0.9380493,-0.88116455
0.25683594,-0.9714966,-0.77008057
0.23168945,-0.92437744,-0.7095337
0.14794922,-0.6616821,-0.4421997
0.043701172,-0.49908447,-0.25616455
0.068359375,-0.16143799,-0.21295166
0.07714844,-0.33746338,-0.17633057
-0.016845703,-0.48394775,-0.12432861
0.23461914,-1.203186,-0.12188721
-0.1315918,-2.0,-0.11212158
0.10180664,-1.2720337,-0.333313
-0.03955078,0.1708374,0.0914917
-0.103027344,0.15496826,0.078063965
0.1694336,-0.31036377,-0.070617676
-0.040771484,-0.7908325,-0.5654907
0.056884766,-1.7356567,0.11029053
0.19335938,-0.75909424,-0.5039673
0.08129883,-0.7463989,-0.3255005
0.014892578,-0.8442993,-0.4282837
0.25708008,-0.7366333,-0.4619751
0.016357422,-0.75909424,-0.52838135
0.07128906,-0.895813,-0.50860596
0.25268555,-1.5525513,-0.9536743
0.19995117,-1.2046509,-0.036193848
0.13232422,-0.40216064,-0.2744751
-0.1027832,-0.7776489,-0.17193604
0.021972656,-1.3101196,-0.09283447
0.08862305,-0.8123169,-0.1296997
0.022705078,-0.9077759,-0.17510986
-0.051757812,-0.9397583,-0.0491333
0.072021484,-0.96221924,-0.15557861
0.07397461,-0.9302368,-0.24542236
