accelX,accelY,accelZ
-0.005126953,-0.9885864,0.15472412
0.026611328,-0.97784424,0.11834717
0.036376953,-0.973938,0.09075928
0.072265625,-0.9439087,0.06536865
0.11035156,-0.9512329,0.016540527
0.14355469,-0.940979,-0.0064086914
0.21704102,-0.8892212,-0.058166504
0.27416992,-0.8665161,-0.15240479
0.23095703,-0.7612915,-0.16290283
0.34814453,-0.77911377,-0.26617432
0.5515137,-0.7151489,-0.4055786
0.5095215,-0.68756104,-0.35186768
0.50561523,-0.6367798,-0.40582275
0.5546875,-0.61553955,-0.43389893
0.56640625,-0.6331177,-0.5132446
0.6308594,-0.63165283,-0.5733032
0.6064453,-0.6741333,-0.6182251
0.6530762,-0.7317505,-0.60479736
0.5703125,-0.7437134,-0.489563
0.50390625,-1.0464478,-0.40777588
0.42456055,-1.1033325,-0.27398682
0.1315918,-0.8982544,-0.041809082
0.12695312,-0.8140259,-0.01763916
0.091552734,-0.9998169,0.04046631
0.0061035156,-1.0151978,0.17669678
-0.056152344,-0.9246216,0.2140503
-0.080078125,-0.9793091,0.22406006
-0.15478516,-1.0029907,0.27264404
-0.13671875,-0.954895,0.31097412
-0.1850586,-0.9768677,0.32025146
-0.17285156,-0.9678345,0.29681396
-0.14648438,-0.9644165,0.27191162
-0.14282227,-0.98883057,0.2658081
-0.12866211,-0.9883423,0.2633667
-0.12719727,-0.9902954,0.2597046
0.010986328,-1.0125122,0.1618042
-0.008544922,-1.0005493,0.16766357
-0.009521484,-0.9932251,0.17279053
-0.018310547,-0.99298096,0.16693115
0.016113281,-0.99176025,0.16571045
0.041992188,-0.986145,0.13323975
0.06616211,-0.9717407,0.11517334
0.11816406,-0.97198486,0.07635498
0.16210938,-0.9434204,0.039245605
0.20996094,-0.9216919,-0.02154541
0.29052734,-0.892395,-0.1038208
0.44750977,-0.8789673,-0.23736572
0.6452637,-0.89019775,-0.2942505
0.77563477,-0.7839966,-0.5618286
0.7805176,-0.81207275,-0.6043091
0.7019043,-0.84259033,-0.5130005
0.6274414,-0.70513916,-0.48443604
0.5361328,-0.7407837,-0.4590454
0.44311523,-0.6939087,-0.41241455
0.4074707,-0.7476196,-0.40118408
0.31567383,-0.6992798,-0.35235596
0.3034668,-0.74713135,-0.29571533
0.21557617,-0.71295166,-0.23248291
0.1743164,-0.76641846,-0.18170166
0.11987305,-0.84381104,-0.14752197
0.12597656,-0.9126587,-0.058166504
0.07373047,-0.9351196,-0.038391113
0.0146484375,-0.9866333,0.024353027
-0.0017089844,-0.99468994,0.06414795
-0.03515625,-0.9944458,0.06341553
-0.05883789,-0.9915161,0.09222412
-0.051757812,-1.0037231,0.11907959
-0.06201172,-1.0078735,0.12200928
-0.06591797,-1.0049438,0.16204834
0.011474609,-0.9656372,0.11590576
0.029052734,-0.9734497,0.1083374
0.06542969,-0.9763794,0.124938965
0.15844727,-0.93096924,0.066833496
0.19067383,-0.9133911,0.062438965
0.17333984,-0.8621216,-0.0178833
0.3413086,-0.83380127,-0.11480713
0.39379883,-0.7805786,-0.21514893
0.3996582,-0.6680298,-0.22198486
0.47680664,-0.69195557,-0.286438
0.5708008,-0.7136841,-0.30963135
0.5703125,-0.7000122,-0.33843994
0.6550293,-0.75006104,-0.31866455
0.71777344,-0.78326416,-0.2366333
0.70336914,-0.74713135,-0.24908447
0.6916504,-0.7715454,-0.1963501
0.6628418,-0.8225708,-0.14776611
0.48876953,-0.98272705,-0.07965088
0.44580078,-1.046936,0.039733887
0.28686523,-1.0066528,0.11126709
0.22094727,-0.9522095,0.093688965
0.11401367,-0.95391846,0.08099365
0.053710938,-1.0281372,0.18670654
-0.009033203,-0.9663696,0.152771
0.037597656,-0.97369385,0.31781006
-0.07299805,-0.97125244,0.39569092
-0.055664062,-0.9644165,0.3151245
0.005859375,-0.99713135,0.30706787
0.06933594,-0.96417236,0.3895874
0.09863281,-0.8987427,0.37591553
0.10839844,-0.8831177,0.45111084
0.07910156,-0.847229,0.5477905
0.068603516,-0.75250244,0.55462646
0.036376953,-0.73516846,0.6871948
-0.024414062,-0.66607666,0.83099365
0.04711914,-0.5960083,0.95233154
-0.056884766,-0.4055786,0.90496826
-0.21118164,-0.33087158,0.9672241
-0.092285156,-0.1519165,0.97161865
-0.1784668,-0.0791626,1.0629272
-0.15893555,-0.062561035,1.2560425
-0.32617188,-0.026916504,1.1229858
-0.50634766,-0.089660645,1.0162964
-0.548584,-0.09503174,0.87127686
-0.35498047,-0.047180176,1.0363159
-0.58935547,-0.042541504,0.94989014
-0.6303711,-0.018615723,0.90252686
-0.5522461,-0.057678223,0.9423218
-0.5632324,-0.03765869,0.9694214
-0.52563477,-0.028381348,0.9755249
-0.5576172,-0.066467285,0.97454834
-0.5344238,-0.062805176,0.9442749
-0.5541992,-0.055236816,0.9450073
-0.51660156,-0.1038208,0.98602295
-0.52197266,-0.074523926,0.9545288
-0.5292969,-0.09576416,0.9743042
-0.51416016,-0.09454346,0.9574585
-0.47827148,-0.078430176,0.98358154
-0.47680664,-0.07354736,0.98358154
-0.46679688,-0.07550049,0.9398804
-0.49731445,-0.0725708,0.9682007
-0.4375,-0.06378174,0.9828491
-0.47998047,-0.030334473,1.0558472
-0.49365234,-0.019348145,1.0145874
-0.5488281,0.026550293,1.0436401
-0.53515625,-0.077697754,0.9491577
-0.4777832,-0.15264893,0.961853
-0.5053711,-0.19854736,0.9718628
-0.5917969,-0.21929932,0.9840698
-0.35180664,-0.2769165,0.946228
-0.38500977,-0.38726807,0.91522217
-0.4182129,-0.4817505,0.91204834
-0.30688477,-0.52667236,0.8065796
-0.3100586,-0.5930786,0.75042725
-0.32788086,-0.7647095,0.7692261
-0.41601562,-0.78204346,0.5133667
-0.2944336,-0.8123169,0.6959839
-0.14624023,-0.78863525,0.711853
-0.0847168,-0.7227173,0.5331421
0.016845703,-0.88360596,0.53411865
0.03491211,-0.92437744,0.5578003
0.14501953,-0.8953247,0.40008545
0.23095703,-0.835022,0.3805542
0.26708984,-0.8513794,0.36712646
0.20019531,-0.88531494,0.34661865
0.14038086,-0.94000244,0.32928467
0.045166016,-1.085022,0.18572998
-0.068603516,-1.0088501,0.1749878
-0.04711914,-1.050354,0.16326904
0.02319336,-1.0007935,0.09173584
0.0847168,-0.9585571,0.1083374
0.11230469,-0.9741821,0.10418701
0.2253418,-0.9155884,0.10003662
0.32763672,-0.9338989,0.019958496
0.82666016,-1.0545044,-0.18487549
0.85375977,-1.0430298,-0.33062744
0.80981445,-0.9639282,-0.37530518
0.65600586,-0.99346924,-0.32647705
0.49804688,-0.90289307,-0.26934814
0.3251953,-0.74176025,-0.27178955
0.20532227,-0.69244385,-0.23248291
0.18676758,-0.66900635,-0.15093994
0.122558594,-0.644104,-0.17071533
0.15429688,-0.74224854,-0.09112549
0.16894531,-1.0142212,0.023620605
0.068603516,-0.87164307,0.054138184
0.0009765625,-0.9585571,0.07928467
0.014160156,-1.0847778,0.07269287
-0.0007324219,-0.9470825,0.11639404
0.00024414062,-1.0029907,0.093688965
0.029785156,-1.0037231,0.12835693
0.0087890625,-0.98101807,0.12835693
0.009033203,-1.0137329,0.14056396
0.04638672,-0.9985962,0.10809326
0.045654297,-1.0027466,0.11663818
0.06225586,-0.9837036,0.070007324
0.118896484,-0.9656372,0.07489014
0.14746094,-0.83599854,0.028747559
-0.1809082,-0.44244385,0.055847168
0.22998047,-0.6021118,-0.019592285
0.32763672,-1.7144165,-0.03741455
0.51660156,-2.0,-0.2901001
0.36035156,-2.0,-0.41436768
0.22851562,-0.503479,0.113220215
-0.25512695,0.8078003,-0.18365479
-0.015136719,-0.19659424,0.1395874
0.024902344,0.057556152,0.05340576
0.08959961,-0.027893066,-0.29742432
-0.34765625,-2.0,1.1959839
0.29345703,-2.0,-0.026184082
0.09082031,-0.69659424,0.094177246
-0.10986328,0.75457764,-0.20196533
-0.011474609,-0.24835205,0.06512451
0.06225586,0.06756592,-0.038635254
0.028564453,-0.2756958,-0.3093872
0.55200195,-2.0,0.48065186
0.70654297,-2.0,-0.30914307
-0.10839844,0.22796631,-0.101379395
0.09765625,0.26727295,0.021911621
-0.13769531,-0.15020752,0.050231934
0.012207031,0.12982178,-0.011047363
0.1862793,-0.9085083,-0.39874268
-0.018310547,-2.0,-0.30352783
0.19213867,-1.5542603,-0.15435791
-0.013671875,-0.26153564,-0.09307861
0.099121094,0.06121826,-0.13238525
0.16772461,-0.68292236,0.15301514
0.018066406,-2.0,0.40960693
0.30908203,-0.0051879883,-0.12628174
0.26611328,-1.0825806,0.010925293
-0.5168457,-1.3687134,-0.27471924
0.5048828,-1.0029907,0.22406006
-0.1171875,-0.8599243,-0.23345947
0.0053710938,-1.0403442,-0.15582275
0.16821289,-0.76446533,-0.33892822
-0.0625,-1.5007935,0.10418701
0.06225586,-1.0613403,0.026550293
-0.0234375,-0.64849854,0.15667725
0.20239258,-1.0154419,0.18914795
0.119384766,-1.0579224,0.121520996
-0.029296875,-0.90997314,0.0368042
0.3071289,-1.2263794,-0.31207275
-0.087402344,-1.2402954,-0.020324707
-0.026123047,-0.67071533,-0.23199463
-0.02758789,-1.0484009,-0.117004395
-0.12475586,-1.0464478,-0.15802002
0.026123047,-0.8491821,-0.2432251
0.016601562,-0.90997314,-0.13922119
-0.08227539,-1.4927368,0.1720581
-0.08618164,-0.7647095,0.11395264
-0.047607422,-0.8826294,0.17718506
0.12060547,-1.0349731,0.19256592
-0.08154297,-1.0523071,0.14520264
-0.0234375,-0.82159424,0.053894043
0.21875,-1.3049927,-0.011779785
-0.16455078,-1.1965942,0.020935059
-0.20214844,-0.798645,-0.09625244
-0.12036133,-0.90045166,-0.013000488
-0.1850586,-1.0681763,0.027770996
-0.060546875,-0.9380493,-0.014709473
-0.19140625,-1.0359497,-0.0869751
0.012207031,-1.0278931,0.04071045
0.10473633,-1.0994263,0.18988037
0.07348633,-0.9817505,0.18719482
0.107666016,-0.8760376,0.17132568
0.114990234,-1.0386353,0.15960693
0.11254883,-0.9849243,0.18939209
0.16015625,-0.9885864,0.21160889
0.14868164,-0.92315674,0.20452881
0.16357422,-0.913147,0.20941162
0.16357422,-0.96881104,0.24090576
0.14428711,-0.99542236,0.2616577
0.056640625,-0.94000244,0.2543335
0.049316406,-1.2608032,0.05609131
-0.21704102,-0.96099854,-0.051574707
-0.16455078,-0.92926025,-0.10699463
-0.24365234,-0.99005127,-0.10650635
-0.1875,-0.98883057,-0.10845947
-0.2915039,-0.99298096,-0.10626221
-0.2705078,-0.99346924,-0.13043213
-0.24853516,-0.99713135,-0.1416626
-0.26416016,-0.989563,-0.13848877
-0.23657227,-0.9661255,-0.12677002
-0.2265625,-0.958313,-0.1663208
-0.23828125,-0.960022,-0.13531494
-0.22021484,-0.92315674,-0.15045166
-0.052734375,-0.9282837,-0.23590088
0.21655273,-1.9807739,1.0592651
0.033935547,-0.57598877,0.19281006
0.2705078,-0.8286743,0.19158936
0.33544922,-0.991272,0.19671631
0.2956543,-0.95025635,0.23577881
0.2536621,-0.93096924,0.2345581
0.29785156,-0.90509033,0.22259521
0.32250977,-0.90826416,0.23577881
0.32885742,-0.90948486,0.23040771
0.30517578,-0.9282837,0.23236084
0.2692871,-0.9260864,0.2189331
0.28271484,-0.8862915,0.20599365
0.24414062,-0.95684814,0.22723389
0.24121094,-0.9302368,0.22161865
0.18774414,-0.9373169,0.18231201
0.18652344,-0.9834595,0.2020874
0.12109375,-0.9656372,0.23797607
0.03857422,-1.2166138,0.06829834
-0.30273438,-0.9932251,-0.059143066
-0.10229492,-0.9434204,-0.19488525
-0.25268555,-0.99468994,-0.06549072
-0.22167969,-0.9776001,-0.124816895
-0.19189453,-0.95318604,-0.12945557
-0.24804688,-0.9776001,-0.124816895
-0.25268555,-0.99298096,-0.14971924
-0.21264648,-0.99005127,-0.13043213
-0.2109375,-0.9915161,-0.101379395
-0.19555664,-0.9692993,-0.12506104
-0.17700195,-0.9492798,-0.11993408
-0.15771484,-0.98272705,-0.10308838
-0.14624023,-0.92193604,-0.13458252
-0.095458984,-0.92315674,-0.12310791
-0.083984375,-1.0183716,-0.14483643
0.034179688,-0.88775635,-0.113586426
0.20947266,-0.88165283,-0.2366333
0.25219727,-0.75177,0.12005615
0.73876953,-0.739563,-0.15948486
0.56103516,-0.6538696,-0.11627197
0.7077637,-0.39898682,-0.2954712
0.9328613,-0.43389893,-0.39971924
0.8977051,-0.3555298,-0.48394775
0.861084,-0.37017822,-0.565979
0.8366699,-0.40509033,-0.48150635
0.8671875,-0.33355713,-0.48858643
0.82177734,-0.35455322,-0.47027588
0.49389648,-0.30059814,-0.34332275
0.78271484,-0.29205322,-0.4277954
0.95410156,-0.33551025,-0.50860596
0.8898926,-0.34210205,-0.6651001
0.9182129,-0.41119385,-0.5286255
0.8208008,-0.4993286,-0.4229126
0.83447266,-0.5652466,-0.3953247
0.7104492,-0.5628052,-0.37774658
0.61865234,-0.57403564,-0.23101807
0.50561523,-0.6240845,-0.18267822
0.5024414,-0.7485962,-0.27301025
0.15820312,-1.0449829,-0.14801025
-0.018310547,-0.8206177,-0.10406494
-0.029296875,-0.87701416,-0.11846924
-0.059570312,-0.95758057,-0.04107666
-0.140625,-0.9331665,0.0138549805
-0.18603516,-1.029602,0.0368042
-0.14453125,-0.9824829,0.06707764
-0.14233398,-1.0083618,0.06463623
-0.18334961,-0.98101807,0.050476074
-0.18310547,-0.9866333,0.06536865
-0.22265625,-0.93536377,-0.011047363
-0.021972656,-1.0960083,-0.0005493164
0.20336914,-1.072815,0.277771
0.05883789,-0.954895,0.21844482
0.05493164,-1.0144653,0.22161865
0.11303711,-0.9480591,0.18597412
0.07885742,-0.9751587,0.19403076
0.045166016,-0.9932251,0.18084717
0.10107422,-1.0234985,0.18475342
0.038085938,-1.0193481,0.152771
0.06298828,-0.92633057,0.1383667
0.026367188,-1.0542603,0.09490967
-0.030029297,-0.9915161,0.09539795
-0.010986328,-1.0110474,0.11859131
-0.021728516,-1.0303345,0.046081543
0.057617188,-0.9812622,0.046325684
0.05883789,-1.0081177,0.08270264
0.030761719,-1.0115356,0.05706787
0.10253906,-1.0090942,0.06365967
0.13305664,-0.98883057,0.06463623
0.12451172,-1.0056763,0.038757324
0.024169922,-0.9920044,0.0065307617
-0.048583984,-0.98321533,0.02532959
-0.12792969,-1.0254517,0.08416748
-0.13867188,-0.98272705,0.16888428
-0.19750977,-1.020813,0.2975464
-0.21801758,-0.989563,0.27947998
-0.2763672,-0.99420166,0.27630615
-0.24487305,-0.9841919,0.21258545
-0.16821289,-0.9944458,0.17547607
-0.1640625,-0.97735596,0.13031006
-0.088378906,-0.9883423,0.09197998
-0.0029296875,-0.97198486,0.039978027
-0.03173828,-0.98760986,0.085876465
-0.048095703,-1.0283813,0.0692749
-0.08544922,-1.0010376,0.10662842
0.036132812,-0.9998169,0.09466553
0.06542969,-1.0117798,0.1227417
