accelX,accelY,accelZ
0.10546875,-0.04498291,-0.45855713
0.52783203,-1.7219849,0.45843506
0.5776367,-0.7600708,0.25775146
0.66137695,-1.538147,0.42352295
-0.7155762,-0.57281494,-0.28253174
1.999939,-1.0530396,0.6305542
0.011474609,0.49554443,-0.5203247
0.3864746,-2.0,0.9232788
1.2421875,-1.2092896,0.59417725
0.6821289,-1.0772095,0.15740967
-0.045410156,-0.56988525,0.030212402
0.23510742,-0.21026611,0.023864746
-0.041503906,-1.21344,-0.45758057
-0.79785156,-1.6248169,0.1593628
-0.63378906,-1.6992798,0.25653076
0.38793945,-0.68585205,-0.35113525
0.2631836,-0.41656494,-0.007385254
-0.012939453,-0.47540283,0.06756592
0.43017578,-1.5447388,0.3612671
0.3232422,-1.3589478,0.4262085
0.47436523,-1.421936,0.4093628
0.20678711,-0.6026001,0.22503662
0.25341797,-0.23077393,0.11883545
-0.15722656,-0.8154907,-0.03326416
-0.24194336,-1.5154419,0.24456787
-0.0769043,-1.7681274,0.31365967
0.13671875,-0.8897095,0.18450928
-0.006591797,-0.15533447,-0.06793213
0.13330078,-1.11969,0.42767334
0.022705078,-1.5864868,0.651062
0.07836914,-1.2664185,0.3143921
0.14624023,-0.3320923,0.101989746
-0.30639648,-0.2617798,-0.24908447
0.46557617,-1.281311,0.14935303
-0.0068359375,-1.2085571,0.1383667
-0.20141602,-1.1104126,-0.05328369
-0.4182129,-1.3418579,0.06903076
-0.3486328,-1.1863403,-0.17266846
-0.15649414,-0.6099243,-0.18536377
0.17456055,-0.5491333,-0.054992676
0.4494629,-1.0986938,0.42034912
0.24829102,-1.3699341,0.5038452
0.0014648438,-1.3306274,0.447937
-0.14111328,-1.2459106,0.043395996
0.2861328,-0.5576782,0.005554199
-0.10961914,-0.25079346,-0.38702393
0.45751953,-0.97052,0.17547607
-0.068359375,-1.3948364,0.36151123
-0.3190918,-1.6655884,0.22161865
0.22558594,-0.75177,-0.08453369
-0.05859375,0.05291748,-0.03277588
0.49951172,-1.3032837,0.4088745
0.6921387,-1.6152954,0.31097412
0.32348633,-1.288147,0.2592163
0.1743164,-0.6033325,0.3908081
0.6281738,-0.09259033,-0.36260986
0.12890625,-1.5457153,-0.612854
-0.69091797,-1.3845825,-0.1609497
-0.05517578,-1.4797974,-0.19049072
-0.3413086,-0.88409424,-0.27471924
-0.060546875,-0.6338501,-0.20562744
-0.19189453,-0.28497314,-0.3123169
0.23876953,-1.2156372,0.27288818
0.26904297,-1.4829712,0.018737793
-0.22875977,-1.3433228,0.089538574
0.25024414,-1.0420532,0.11956787
-0.047607422,-0.66241455,0.117370605
0.14941406,-0.37164307,-0.02911377
0.10644531,-0.87286377,-0.22271729
-0.44506836,-1.256897,0.01361084
-0.32885742,-1.6016235,0.14935303
-0.21875,-1.0383911,0.09539795
0.12060547,-0.5466919,0.046569824
-0.15625,-0.2835083,-0.14019775
-0.56811523,-1.6419067,-0.04473877
-0.5300293,-1.4317017,0.19232178
-0.087402344,-1.2976685,0.14202881
0.09838867,-0.55670166,-0.0869751
0.024169922,-0.3550415,-0.36505127
0.453125,-1.28302,-0.08477783
0.08911133,-1.404602,0.074157715
-0.2849121,-1.4819946,0.08441162
0.10083008,-1.0435181,-0.013977051
0.24072266,-0.45611572,-0.053771973
-0.052734375,-0.8267212,-0.013977051
0.44458008,-1.3345337,0.2501831
0.62524414,-1.2920532,0.38226318
0.28173828,-1.1704712,0.26800537
0.016845703,-0.895813,0.2321167
0.28222656,-0.61724854,0.29486084
0.03881836,-0.58966064,-0.14019775
-0.0026855469,-1.3599243,0.12420654
0.0034179688,-1.2984009,0.22137451
-0.3479004,-1.2468872,0.18743896
-0.0625,-0.80792236,0.07098389
0.18188477,-0.25250244,-0.16461182
-0.015136719,-0.9182739,0.16009521
0.45214844,-1.4280396,0.38763428
0.19702148,-1.3699341,0.5055542
0.12939453,-1.2610474,0.4118042
-0.036865234,-1.0342407,0.22650146
-0.1743164,-0.5274048,0.29656982
0.44848633,-0.5874634,-0.40679932
-0.3876953,-1.3067017,-0.07232666
0.3413086,-1.0042114,-0.24371338
0.0026855469,-1.1045532,-0.21368408
-0.18432617,-1.4585571,-0.29693604
-0.42773438,-1.1431274,-0.32086182
-0.16894531,-0.07965088,-0.18487549
0.3400879,-0.42437744,-0.41485596
-0.034179688,-1.406311,-0.348938
-0.1303711,-1.4854126,-0.097961426
0.24780273,-1.55719,-0.36676025
0.10595703,-0.8711548,-0.4619751
-0.13305664,-0.077697754,-0.24224854
-0.17163086,-0.9458618,-0.630188
-0.13574219,-1.569397,0.10321045
-0.19628906,-1.5549927,0.23406982
-0.21508789,-0.97491455,-0.0491333
-0.19213867,-0.32110596,0.0060424805
0.3244629,-0.2288208,-0.07891846
-0.21557617,-1.7996216,-0.16314697
-0.45507812,-1.2771606,0.3764038
0.12988281,-1.4033813,0.3678589
-0.14794922,-1.0205688,0.27508545
0.32226562,-0.47198486,0.0045776367
0.3779297,-0.767395,-0.18487549
-0.20410156,-1.4002075,-0.25836182
-0.6242676,-1.6323853,-0.04815674
-0.016601562,-0.9077759,0.0770874
0.43920898,-0.11431885,-0.077697754
-0.43359375,-0.8418579,0.13421631
0.43017578,-1.4585571,0.5783081
1.0527344,-1.3963013,0.6034546
0.49365234,-0.8250122,0.11419678
0.51464844,-0.6235962,0.1564331
-0.09692383,-0.46636963,-0.24517822
0.5534668,-1.1633911,-0.19000244
0.25390625,-1.3535767,-0.13189697
-0.09375,-1.1714478,-0.27471924
-0.18823242,-1.413147,-0.25738525
-0.27368164,-1.1189575,-0.36480713
0.16357422,-0.2949829,-0.09063721
-0.30249023,-0.57598877,-0.25421143
-0.39770508,-1.5515747,0.047302246
0.19140625,-1.3806763,0.14959717
0.10205078,-1.0957642,-0.13482666
-0.06347656,-1.0115356,0.014831543
0.052001953,-0.68634033,-0.17462158
0.17675781,-1.0361938,-0.09820557
-0.22094727,-0.9133911,-0.18878174
-0.36743164,-1.1333618,-0.75079346
-0.87890625,-0.878479,-0.23394775
-0.22021484,-1.0645142,-0.013000488
-0.2644043,-1.2927856,0.13812256
-0.19946289,-0.861145,0.024841309
0.0029296875,-0.58917236,-0.061828613
0.20654297,-0.7749634,0.10345459
0.09643555,-1.4153442,0.02166748
-0.083984375,-1.4717407,0.08074951
-0.09277344,-1.0496216,0.11785889
-0.30566406,-0.24542236,-0.054016113
0.6315918,-0.6633911,-0.36187744
-0.12158203,-1.4453735,0.16326904
0.16821289,-1.3447876,0.1515503
-0.24609375,-1.4815063,-0.049865723
-0.05834961,-0.8530884,-0.14801025
0.18017578,-0.085998535,0.30267334
0.5258789,-0.55841064,0.338562
0.7351074,-1.1543579,0.33709717
0.8510742,-1.2051392,0.29632568
0.75024414,-1.258606,0.309021
0.29052734,-0.59381104,0.07611084
0.17895508,-0.11407471,-0.38311768
0.042236328,-1.0117798,-0.40020752
-0.6687012,-1.3606567,-0.019836426
-0.010253906,-0.9065552,-0.3045044
0.009765625,-1.1712036,-0.12432861
0.021972656,-1.2153931,-0.0010375977
0.026367188,-1.272522,-0.14801025
-0.015380859,-1.4351196,-0.24786377
-0.15185547,-1.5518188,-0.38043213
0.44140625,0.058044434,-0.10675049
0.4272461,-0.39385986,-0.13360596
0.560791,-1.1790161,0.2826538
0.20043945,-0.9373169,0.10736084
0.29345703,-0.96588135,-0.08795166
0.3720703,-1.2849731,0.043151855
0.8676758,-1.565979,0.32659912
0.15161133,-0.58135986,0.15667725
0.32763672,-0.10772705,-0.15240479
0.20947266,-0.85943604,-0.28619385
-0.34179688,-1.3213501,-0.16143799
-0.0703125,-0.9788208,-0.12652588
0.14526367,-1.0266724,-0.13043213
-0.083740234,-1.194397,0.059265137
0.16015625,-1.8164673,-0.24835205
0.1965332,-1.1265259,0.024841309
0.51049805,0.16619873,0.14569092
0.010009766,-0.29864502,-0.3484497
0.34960938,-1.5427856,0.08074951
0.4790039,-1.4263306,0.25579834
0.71777344,-1.4758911,0.2897339
0.25878906,-0.70318604,0.19378662
0.13769531,-0.22320557,-0.055236816
0.021972656,-0.25860596,-0.25665283
0.47387695,-1.5610962,-0.18609619
-0.064453125,-1.4238892,0.41400146
-0.16430664,-1.3721313,0.3451538
0.05810547,-0.9446411,-0.21368408
0.103515625,-0.41778564,-0.26348877
-0.16088867,-0.31011963,0.00970459
0.6381836,-1.1555786,-0.600647
-0.067871094,-1.5188599,-0.5003052
0.39257812,-1.5606079,-0.12261963
0.3161621,-1.0115356,-0.14239502
0.3474121,-0.56573486,-0.17120361
0.25146484,-0.30548096,-0.37457275
-0.09033203,-0.8826294,-0.5564575
-0.34155273,-1.2393188,-0.39874268
-0.3503418,-1.6624146,-0.12994385
-0.076416016,-1.0388794,-0.1182251
0.06689453,-0.16412354,-0.02935791
-0.1472168,-0.7185669,-0.2876587
-0.4423828,-1.3247681,0.24334717
-0.2841797,-1.5391235,-0.11236572
-0.4716797,-1.6433716,-0.24395752
-0.23535156,-0.61846924,-0.49395752
-0.068359375,-0.109191895,-0.47442627
-0.041015625,-0.78448486,-0.5339966
-0.1977539,-1.3914185,-0.11993408
0.39013672,-1.7661743,-0.23345947
-0.1862793,-1.1199341,-0.6411743
0.5126953,-0.40386963,-0.22662354
-0.7182617,-0.38482666,-1.055481
-0.13671875,-1.1834106,0.043884277
0.38500977,-1.2510376,-0.16021729
0.28686523,-1.06427,-0.75738525
0.25170898,-0.8098755,-0.6567993
-0.38964844,-0.36212158,-1.1831665
0.3918457,-1.1218872,0.16448975
0.34057617,-1.8064575,0.15472412
0.5097656,-1.4942017,0.31878662
-0.4609375,0.19207764,0.023620605
0.27416992,-0.2444458,0.062438965
0.91748047,-1.1956177,0.023376465
0.54589844,-0.9507446,-0.012756348
0.861084,-1.1594849,-0.33355713
0.37402344,-1.3252563,0.12664795
0.6928711,-0.9182739,0.23162842
0.29248047,-0.3164673,-0.04449463
0.67285156,-0.6099243,0.020690918
-0.10083008,-0.61920166,-0.32696533
0.24365234,-1.2039185,-0.36505127
0.08691406,-1.4436646,-0.034484863
0.0546875,-1.5713501,-0.10626221
-0.103759766,-1.2678833,-0.30548096
-0.21044922,-0.10626221,-0.38946533
0.064941406,-0.3867798,-0.58917236
0.32739258,-1.2976685,-0.35772705
0.2211914,-1.6050415,-0.18389893
0.18554688,-1.343811,-0.3579712
0.08154297,-0.7402954,-0.37628174
-0.028320312,-0.41363525,-0.29473877
-0.53149414,-1.0447388,-0.34405518
-0.04663086,-1.0740356,-0.20977783
-0.17626953,-1.7366333,-0.33306885
-0.2446289,-0.47198486,0.13031006
0.2590332,-0.39019775,-0.25616455
-0.52368164,-1.2388306,0.0036010742
0.4645996,-0.9295044,-0.112854004
0.007080078,-1.1990356,-0.1885376
-0.25341797,-1.40802,-0.18341064
-0.24121094,-0.9414673,-0.20684814
-0.061523438,-0.43121338,-0.3718872
0.30664062,-0.48980713,-0.09698486
-0.017578125,-1.1834106,0.16448975
0.27783203,-1.3999634,0.023864746
0.24926758,-1.4155884,0.2020874
0.29785156,-1.102356,0.10076904
0.27929688,-0.6782837,0.26239014
-0.02734375,-0.36065674,-0.1687622
0.32641602,-0.83477783,-0.2991333
-0.32177734,-1.5076294,0.0692749
-0.32714844,-1.7832642,0.20721436
0.0009765625,-0.92681885,-0.3045044
0.2290039,0.14471436,-0.22564697
0.21020508,-0.08770752,-0.18756104
0.6755371,-1.7849731,0.24285889
-0.3642578,-1.6565552,0.18109131
0.18969727,-1.7605591,0.43670654
-0.103271484,-0.85772705,0.23431396
-0.25952148,-0.1506958,0.10614014
-0.05102539,-0.32476807,0.12371826
0.67333984,-1.7886353,-0.43511963
0.01171875,-1.2703247,0.21209717
-0.0690918,-1.2515259,0.1918335
-0.30541992,-1.1194458,0.2074585
-0.08618164,-1.3543091,0.18817139
0.0,-0.62945557,-0.058898926
0.25732422,-0.33843994,-0.19683838
0.23095703,-1.0471802,-0.11529541
0.17456055,-1.4221802,0.13397217
0.5488281,-1.0005493,0.13201904
0.30493164,-0.5232544,-0.25689697
0.58032227,-0.9612427,-0.40020752
-0.7858887,-1.7166138,-0.19488525
-0.57373047,-2.0,-0.25787354
-0.016357422,-0.028137207,-0.36065674
0.23779297,-0.20196533,-0.50372314
-0.68066406,-0.9734497,-0.30059814
-0.5588379,-1.2664185,-0.020568848
-0.22827148,-1.664856,0.24432373
-0.26049805,-1.0166626,-0.061584473
0.018066406,-1.342102,0.21209717
-0.103759766,-0.8814087,0.2584839
0.17993164,-0.48883057,0.024353027
0.00048828125,-1.0073853,-0.31915283
-0.16845703,-1.3569946,-0.2637329
-0.20263672,-0.88604736,-0.09429932
0.19482422,-0.9170532,-0.2822876
-0.12988281,-1.1065063,-0.2805786
0.2163086,-1.7781372,-0.33966064
-0.26000977,-0.6350708,-0.16973877
-0.061279297,0.06097412,-0.2444458
0.203125,-1.5899048,0.2164917
0.4194336,-1.5117798,0.2855835
0.15356445,-1.0725708,0.19891357
0.18457031,-0.25811768,-0.117004395
-0.027832031,-0.71832275,-0.0022583008
1.052002,-1.671936,0.46966553
-0.032958984,-0.58258057,-0.16339111
-0.13061523,-0.83380127,-0.25054932
-0.04296875,-0.6807251,-0.255188
-0.009521484,-1.5178833,-0.21539307
0.118896484,-1.6409302,-0.109436035
-0.13745117,-1.3911743,-0.30377197
-0.22143555,-0.6235962,-0.2041626
0.4165039,0.33880615,-0.1807251
0.01928711,-0.76641846,-0.19683838
0.40039062,-1.477356,0.20111084
0.32470703,-1.5508423,0.14764404
0.04345703,-0.862854,0.059020996
-0.005859375,-0.7180786,0.008972168
0.028320312,-1.0093384,0.058288574
0.12841797,-1.1279907,0.26239014
0.31469727,-1.217102,0.23651123
0.032714844,-1.7244263,0.51727295
0.24438477,-0.7161255,0.5717163
0.7182617,-0.06573486,-0.1831665
-0.1484375,-0.5366821,-0.7139282
-0.03100586,-1.472229,0.053649902
0.4609375,-1.2271118,-0.36114502
-0.05834961,-1.0984497,-0.06915283
-0.06738281,-1.125061,-0.28961182
0.040771484,-1.3230591,-0.11016846
-0.28686523,-1.4717407,-0.21026611
-0.36279297,-1.1275024,-0.011779785
0.27905273,-0.12359619,-0.11846924
0.18701172,-0.49176025,0.105895996
