accelX,accelY,accelZ
-0.08154297,-0.9819946,0.25286865
-0.060546875,-0.70391846,0.26849365
-0.1665039,-0.850647,0.29534912
-0.24633789,-0.8189087,0.41278076
-0.1940918,-0.8989868,0.3612671
-0.45166016,-1.123352,0.5704956
-0.0048828125,-1.4334106,0.06072998
0.0036621094,-0.9360962,0.16986084
-0.26123047,-0.8748169,0.25457764
-0.099365234,-0.7896118,0.27703857
-0.10449219,-0.7756958,0.35662842
-0.18798828,-0.85601807,0.41644287
-0.20703125,-1.3511353,0.6576538
-0.10424805,-1.3335571,-0.02178955
-0.13085938,-0.940979,0.31121826
0.051757812,-0.84552,0.2748413
-0.19970703,-0.73565674,0.23162842
-0.2783203,-0.85821533,0.34613037
-0.23535156,-0.88165283,0.36810303
-0.36791992,-1.2051392,0.53704834
0.092041016,-1.1841431,-0.026428223
-0.1303711,-1.2815552,0.24676514
-0.26464844,-0.65875244,0.17791748
-0.07446289,-0.78253174,0.34710693
-0.08984375,-0.798645,0.36224365
-0.18334961,-0.8843384,0.40325928
-0.30273438,-1.0828247,0.77948
0.08862305,-1.611145,-0.286438
-0.1352539,-0.8538208,0.116882324
-0.055908203,-0.6602173,0.21478271
-0.19580078,-0.80548096,0.27020264
-0.1730957,-0.8167114,0.36102295
-0.3178711,-1.0701294,0.5043335
-0.19238281,-1.2747192,0.25408936
0.060791016,-1.1304321,0.15618896
-0.17285156,-1.0354614,0.16741943
-0.13476562,-0.65289307,0.18792725
-0.09692383,-0.64190674,0.33514404
-0.17529297,-0.8777466,0.49700928
-0.14868164,-1.3084106,0.5939331
-0.15478516,-1.3875122,-0.20513916
-0.19116211,-0.4993286,0.416687
-0.14111328,-1.1140747,0.3222046
-0.033691406,-0.74835205,0.2111206
-0.16455078,-0.7217407,0.30755615
-0.07470703,-1.0303345,0.28338623
-0.2692871,-1.3091431,0.2514038
0.055664062,-1.2578735,0.109558105
0.03955078,-1.0662231,0.11102295
-0.029785156,-0.67437744,0.17767334
-0.044433594,-0.67388916,0.24285889
-0.13916016,-0.79644775,0.27069092
-0.17358398,-1.0430298,0.3348999
-0.36010742,-1.3948364,-0.07501221
-0.27954102,-0.71588135,0.21234131
0.05810547,-1.0354614,0.26556396
-0.030761719,-0.62701416,0.10614014
-0.2211914,-0.77545166,0.25457764
-0.23583984,-0.8098755,0.37249756
-0.30004883,-1.2747192,0.5499878
0.057861328,-1.336731,-0.002746582
0.08300781,-1.3059692,0.291687
-0.26123047,-0.61676025,0.09661865
-0.076171875,-0.7131958,0.24066162
-0.1003418,-0.77423096,0.2531128
-0.23168945,-0.90631104,0.3834839
-0.33618164,-1.0337524,0.6976929
-0.111572266,-2.0,-0.46929932
-0.056884766,-0.8657837,0.4274292
0.010498047,-0.4805298,0.02166748
-0.17358398,-0.7971802,0.18597412
-0.2685547,-0.86553955,0.39593506
-0.32836914,-1.1218872,0.58270264
0.10449219,-1.6741333,0.031677246
-0.41870117,-1.3103638,0.08392334
-0.2319336,-0.8401489,0.1852417
-0.09277344,-0.74664307,0.17059326
-0.14672852,-0.6826782,0.3036499
-0.20678711,-0.9092407,0.48382568
-0.27612305,-1.2820435,0.6950073
0.0073242188,-1.625061,-0.24078369
-0.19458008,-1.1055298,0.11639404
0.014404297,-0.4751587,0.19769287
-0.23120117,-0.83551025,0.1954956
-0.2919922,-0.8621216,0.34246826
-0.19921875,-1.0464478,0.28753662
-0.18359375,-1.5540161,0.13934326
-0.015136719,-0.9089966,-0.0064086914
-0.17700195,-0.98150635,0.14984131
-0.11987305,-0.6873169,0.15570068
-0.12207031,-0.68463135,0.3295288
-0.15942383,-0.88946533,0.37225342
-0.25439453,-1.4668579,0.385437
-0.07543945,-1.4470825,-0.11895752
-0.3203125,-0.95391846,0.11883545
0.02758789,-0.6182251,0.20574951
-0.072753906,-0.6445923,0.124938965
-0.1875,-0.79766846,0.26116943
-0.17236328,-1.0654907,0.25604248
-0.4050293,-1.3157349,0.3475952
0.076171875,-1.0991821,-0.14703369
0.12158203,-1.2144165,0.07879639
-0.13574219,-0.6084595,0.10003662
-0.020751953,-0.6856079,0.2321167
-0.15966797,-0.8484497,0.3060913
-0.07543945,-1.1399536,0.34954834
-0.33032227,-1.1431274,0.23358154
0.20629883,-0.5960083,0.27215576
0.119140625,-1.3901978,0.20672607
-0.16772461,-0.65045166,0.055114746
-0.0949707,-0.7251587,0.21380615
-0.122802734,-0.8875122,0.2765503
-0.3190918,-1.288147,0.37176514
-0.095703125,-1.4207153,-0.04034424
0.23779297,-0.9324341,0.06536865
-0.1237793,-1.0603638,0.07635498
-0.1899414,-0.68170166,0.16400146
0.018554688,-0.7407837,0.27752686
-0.14501953,-0.8953247,0.34954834
-0.36767578,-1.3753052,0.59173584
-0.09057617,-1.2717896,0.016296387
-0.32714844,-0.49224854,-0.028137207
0.040527344,-0.98638916,0.3204956
-0.11035156,-0.70196533,0.08880615
-0.17211914,-0.74664307,0.23382568
-0.095458984,-0.8413696,0.31243896
-0.35205078,-1.3025513,0.510437
-0.1352539,-1.2556763,0.15838623
0.08569336,-1.1455688,0.36053467
-0.010986328,-0.88287354,0.13909912
-0.10473633,-0.6001587,0.17181396
-0.11621094,-0.725647,0.38226318
-0.22290039,-0.81378174,0.3817749
-0.28955078,-1.2649536,0.48797607
-0.19189453,-1.7903442,0.05633545
-0.17480469,-0.5652466,0.30975342
0.021972656,-0.66534424,0.41448975
-0.203125,-0.73883057,0.14959717
-0.22167969,-0.80596924,0.27288818
-0.25878906,-0.97369385,0.34222412
-0.45996094,-1.2070923,0.55462646
0.087890625,-1.1465454,-0.10430908
-0.12426758,-1.2200317,0.26190186
-0.17919922,-0.72320557,0.18084717
-0.048583984,-0.7210083,0.20672607
-0.14086914,-0.77227783,0.3834839
-0.22143555,-1.0291138,0.39154053
-0.3425293,-1.1550903,0.51727295
-0.107177734,-0.9463501,0.15570068
-0.13183594,-1.4385376,0.19085693
0.02734375,-0.52227783,0.06488037
-0.2109375,-0.74713135,0.2255249
-0.15429688,-0.90093994,0.31195068
-0.26586914,-1.3291626,0.36956787
0.025390625,-1.2817993,0.2387085
0.08959961,-1.0027466,0.20965576
-0.09741211,-0.93170166,0.11248779
-0.1508789,-0.58917236,0.19207764
-0.07861328,-0.66656494,0.338562
-0.19677734,-0.8718872,0.49163818
-0.23754883,-1.4585571,0.73065186
0.095214844,-1.7857056,-0.13409424
-0.25708008,-1.2661743,0.10101318
0.043945312,-0.4290161,0.2929077
-0.1850586,-0.75128174,0.23699951
-0.265625,-0.82232666,0.36419678
-0.1628418,-1.0042114,0.33880615
-0.2800293,-1.3179321,0.168396
0.19970703,-1.1853638,0.24041748
-0.08496094,-1.1228638,0.16009521
-0.09057617,-0.50860596,0.1906128
-0.061523438,-0.6289673,0.38763428
-0.14575195,-0.9006958,0.418396
-0.20239258,-1.4710083,0.53411865
-0.076660156,-1.4985962,-0.16290283
-0.15722656,-0.70928955,0.44769287
-0.053466797,-0.6819458,0.2892456
-0.032470703,-0.6367798,0.26019287
-0.19213867,-0.73809814,0.29364014
-0.24487305,-0.96051025,0.3991089
-0.31298828,-1.1030884,0.54193115
0.18359375,-1.2136841,-0.13726807
-0.23364258,-1.248352,0.22039795
-0.2619629,-0.6116333,0.11810303
-0.03564453,-0.7283325,0.33221436
-0.171875,-0.8740845,0.34881592
-0.20410156,-1.0630493,0.3209839
-0.57714844,-0.9282837,0.26190186
-0.33789062,-1.2246704,0.00579834
-0.09741211,-1.4187622,0.17059326
-0.068359375,-0.4656372,0.124694824
-0.22729492,-0.6802368,0.23431396
-0.17114258,-0.944397,0.29241943
-0.37060547,-1.2717896,0.34124756
0.3659668,-1.4099731,-0.15557861
-0.14038086,-1.2337036,0.22454834
-0.28466797,-0.7456665,0.11004639
-0.049804688,-0.6096802,0.18719482
-0.07421875,-0.7468872,0.28900146
-0.30273438,-0.92926025,0.30438232
-0.39648438,-1.0786743,0.621521
-0.107666016,-1.2647095,-0.0134887695
-0.099365234,-1.3882446,0.22406006
-0.055908203,-0.52960205,0.19671631
-0.1381836,-0.68951416,0.13690186
-0.30615234,-0.9314575,0.35076904
-0.32470703,-1.2337036,0.45428467
0.013671875,-1.3255005,0.043151855
-0.033935547,-1.1616821,0.19647217
-0.23266602,-0.9006958,0.13079834
-0.08178711,-0.54571533,0.17156982
-0.1430664,-0.68096924,0.3156128
-0.19116211,-0.8674927,0.4225464
-0.3400879,-1.3252563,0.72576904
-0.0012207031,-1.5630493,0.0018920898
-0.24414062,-1.0652466,0.31732178
0.030273438,-0.5767212,0.26971436
-0.12597656,-0.6929321,0.16204834
-0.2692871,-0.8599243,0.32537842
-0.3005371,-0.9590454,0.42132568
-0.26782227,-1.2615356,0.3114624
0.0061035156,-0.91851807,0.10638428
-0.07324219,-1.2310181,0.21746826
-0.055908203,-0.6133423,0.1251831
-0.07885742,-0.644104,0.24603271
-0.14086914,-0.83258057,0.34100342
-0.24853516,-1.2354126,0.22991943
-0.25756836,-1.8894653,-0.21685791
-0.2512207,-0.6760864,-0.045959473
-0.021728516,-0.5442505,0.29412842
-0.059326172,-0.6765747,0.19329834
-0.1953125,-0.8374634,0.20306396
-0.18432617,-0.90509033,0.31610107
-0.34814453,-1.2310181,0.4208374
0.15600586,-1.3215942,-0.15777588
0.02758789,-1.4026489,0.27630615
-0.16870117,-0.6091919,0.17889404
-0.122802734,-0.7576294,0.30169678
-0.09741211,-0.7774048,0.36810303
-0.30078125,-0.9500122,0.3336792
-0.28686523,-1.3049927,0.15374756
-0.60668945,-0.4817505,0.2218628
-0.05859375,-1.1118774,0.3546753
-0.079833984,-0.5803833,0.1564331
-0.24316406,-0.7571411,0.20281982
-0.27954102,-0.90802,0.39007568
-0.2824707,-1.3303833,0.494812
0.048583984,-1.0830688,0.16595459
0.20117188,-1.348938,0.27069092
-0.18701172,-0.49395752,0.09100342
-0.049804688,-0.7293091,0.2904663
-0.15917969,-0.7739868,0.3661499
-0.2121582,-0.86138916,0.43255615
-0.36132812,-1.1470337,0.6923218
-0.16894531,-1.1743774,-0.124816895
-0.22216797,-1.4382935,0.2904663
-0.037353516,-0.5256958,0.17449951
-0.19726562,-0.7107544,0.11956787
-0.28173828,-0.8753052,0.37347412
-0.21875,-1.1763306,0.44696045
-0.119628906,-1.428772,0.17962646
0.0017089844,-0.9385376,0.08441162
-0.16015625,-1.048645,0.09661865
-0.18359375,-0.71051025,0.2020874
-0.12670898,-0.66973877,0.3619995
-0.12939453,-0.74542236,0.45599365
-0.18310547,-1.4971313,0.53289795
-0.036865234,-2.0,-0.015686035
-0.09057617,-0.89727783,-0.04937744
-0.08105469,-0.38482666,0.2765503
-0.048339844,-0.7197876,0.27093506
-0.22753906,-0.63360596,0.29193115
-0.22998047,-0.89801025,0.3944702
-0.48266602,-1.1199341,0.6276245
0.13232422,-1.1533813,-0.047668457
-0.016601562,-1.4522095,0.25408936
-0.2849121,-0.6760864,0.2831421
-0.09082031,-0.64019775,0.30877686
-0.123535156,-0.7337036,0.2682495
-0.2265625,-0.9495239,0.3817749
-0.40478516,-1.1856079,0.63690186
-0.1508789,-0.7481079,0.07098389
-0.28051758,-1.5142212,0.12713623
-0.06274414,-0.644104,0.22210693
-0.16210938,-0.6773071,0.19012451
-0.17626953,-0.8960571,0.3024292
-0.18432617,-1.1721802,0.354187
-0.0031738281,-1.460022,0.13909912
0.013916016,-1.1270142,-0.08380127
-0.18701172,-0.9846802,0.17889404
-0.068115234,-0.6343384,0.20111084
-0.08544922,-0.6921997,0.3788452
-0.19750977,-0.8518677,0.47991943
-0.15429688,-1.3313599,0.59051514
-0.05493164,-1.9314575,-0.14239502
-0.19799805,-1.3291626,0.10784912
0.048828125,-0.4204712,0.29608154
-0.21069336,-0.75079346,0.19622803
-0.1628418,-0.8640747,0.23504639
-0.1965332,-0.92193604,0.3390503
-0.31567383,-1.116272,0.34783936
0.08984375,-1.1182251,0.028747559
-0.1743164,-1.2717896,0.18499756
-0.1586914,-0.58795166,0.15814209
-0.049560547,-0.69073486,0.27557373
-0.11206055,-0.8345337,0.37200928
-0.13598633,-1.1633911,0.1593628
-0.47485352,-1.3296509,-0.18414307
-0.14111328,-0.26397705,0.38690186
-0.13085938,-1.0361938,0.35931396
-0.14624023,-0.7073364,0.14227295
-0.14233398,-0.64508057,0.2736206
-0.19335938,-0.9121704,0.33880615
-0.31201172,-1.3596802,0.48944092
0.15917969,-1.3179321,-0.21392822
-0.092285156,-1.2363892,0.20306396
-0.25878906,-0.8699341,0.18328857
-0.107421875,-0.6577759,0.17034912
-0.0859375,-0.7608032,0.32073975
-0.22338867,-0.9314575,0.3776245
-0.3305664,-1.2901001,0.30291748
0.1105957,-0.5408325,0.41033936
-0.06542969,-1.545227,0.21478271
-0.22460938,-0.6848755,0.17376709
-0.0625,-0.59332275,0.17913818
-0.25878906,-0.88287354,0.22991943
-0.21020508,-1.2803345,0.47161865
0.26538086,-1.498352,-0.04425049
-0.0690918,-1.1448364,0.29681396
-0.25585938,-0.9024048,0.2086792
-0.21142578,-0.65289307,0.2230835
-0.07397461,-0.7210083,0.35003662
-0.14086914,-0.8687134,0.4105835
-0.14086914,-1.4141235,0.6312866
-0.26464844,-1.3294067,-0.0071411133
-0.2697754,-0.7739868,0.21478271
-0.07519531,-0.78741455,0.2850952
-0.17089844,-0.6917114,0.2008667
-0.27978516,-0.75909424,0.29119873
-0.21606445,-0.9133911,0.38006592
-0.40625,-1.1397095,0.5067749
0.123535156,-1.1738892,-0.117492676
-0.13842773,-1.3045044,0.2489624
-0.33618164,-0.7920532,0.26531982
-0.07910156,-0.67681885,0.26849365
-0.1496582,-0.7527466,0.32244873
-0.28686523,-0.892395,0.40008545
-0.45483398,-1.0696411,0.7394409
-0.15209961,-1.201477,-0.047668457
-0.27490234,-1.4429321,0.35638428
-0.07543945,-0.63531494,0.3366089
-0.21875,-0.5857544,0.1762085
-0.34643555,-0.7671509,0.33270264
-0.27124023,-1.0852661,0.47381592
-0.42651367,-1.1091919,0.5097046
0.020751953,-1.003479,0.17938232
-0.19506836,-1.1985474,0.24822998
-0.17675781,-0.5803833,0.16741943
-0.095947266,-0.66119385,0.3102417
-0.21850586,-0.77838135,0.35272217
-0.33544922,-1.1355591,0.37908936
-0.4621582,-1.2449341,0.24188232
-0.24707031,-0.6602173,0.23162842
-0.1574707,-1.0964966,0.26898193
-0.063964844,-0.7000122,0.2584839
-0.27783203,-0.6370239,0.24847412
-0.24121094,-0.8423462,0.42840576
-0.31713867,-1.2166138,0.5634155
-0.08959961,-1.2578735,0.24212646
-0.033691406,-1.2266235,0.11273193
-0.33911133,-0.90802,0.18133545
-0.10180664,-0.6826782,0.17913818
-0.12158203,-0.72320557,0.31707764
-0.20239258,-0.81085205,0.33392334
-0.27270508,-1.3477173,0.5355835
-0.16699219,-1.7588501,-0.09967041
-0.28686523,-0.6033325,0.20257568
-0.037841797,-0.65338135,0.3703003
-0.20727539,-0.74884033,0.17889404
-0.21435547,-0.76446533,0.25726318
