accelX,accelY,accelZ
-0.09643555,-1.1692505,0.36224365
0.16723633,-1.3545532,0.14886475
-0.055664062,-0.86260986,-0.18292236
0.27978516,-1.1589966,-0.077941895
-0.20092773,-0.8296509,0.12664795
-0.0034179688,-0.7991333,0.02557373
-0.17041016,-0.803772,0.0848999
0.053955078,-0.94073486,0.113708496
-0.22680664,-1.2705688,0.23895264
-0.12158203,-1.4697876,0.12005615
0.7348633,-0.6433716,0.016784668
-0.31201172,-1.4995728,-0.09234619
0.14794922,-0.6218872,0.11444092
-0.064208984,-0.93585205,0.089782715
0.06713867,-0.7149048,0.13128662
-0.095947266,-0.9072876,0.21600342
0.34375,-1.2339478,0.25335693
-0.54418945,-1.6043091,-0.031066895
0.37060547,-0.62872314,-0.1296997
-0.06542969,-1.3569946,-0.15753174
0.099609375,-0.73687744,0.11785889
-0.18164062,-0.6694946,0.061706543
-0.060546875,-0.8237915,0.059753418
-0.09082031,-1.0825806,0.11248779
0.0009765625,-1.2944946,0.35003662
0.1081543,-1.4116821,-0.11505127
0.5292969,-0.6592407,0.044128418
-0.009277344,-1.1917114,0.038024902
0.0078125,-0.6802368,0.17474365
0.038085938,-0.82037354,0.1293335
0.008300781,-0.79278564,0.0848999
-0.06518555,-1.0379028,0.0524292
-0.04272461,-1.3643188,0.41131592
0.421875,-1.3499146,-0.116760254
-0.13354492,-0.83184814,-0.2276001
0.33642578,-1.161438,0.18084717
-0.24316406,-0.5811157,0.042907715
0.056152344,-0.8701782,0.12298584
-0.13183594,-0.8274536,0.070739746
-0.032470703,-1.2810669,0.14544678
-0.26464844,-1.4536743,0.14764404
0.4309082,-0.8711548,-0.15435791
0.038330078,-0.9246216,0.007751465
0.16577148,-0.79766846,0.001159668
-0.06201172,-0.7527466,0.17401123
0.056640625,-0.7776489,0.10614014
0.024414062,-0.9299927,0.21795654
0.1027832,-1.227356,0.14154053
-0.5488281,-1.4719849,0.085876465
0.5214844,-0.8362427,-0.15655518
-0.028076172,-1.1248169,-0.10015869
0.13085938,-0.7893677,0.09979248
-0.16308594,-0.5991821,0.018249512
0.024902344,-1.0100708,0.016540527
-0.23803711,-0.8994751,0.13226318
0.17895508,-1.3391724,0.22283936
0.13305664,-1.5122681,-0.13873291
0.7192383,-0.68927,0.11273193
-0.2199707,-1.3543091,-0.1362915
0.02368164,-0.5396118,0.097351074
0.0017089844,-0.9163208,0.13739014
0.048583984,-0.7908325,0.19085693
-0.026367188,-1.0877075,0.19256592
-0.33447266,-1.1755981,0.33026123
0.5349121,-1.1604614,-0.113586426
-0.028076172,-1.086731,-0.18048096
0.30566406,-0.88287354,0.21868896
-0.30419922,-0.5930786,0.0446167
0.09008789,-0.9011841,0.09515381
-0.21728516,-0.92193604,0.13201904
-0.05102539,-1.3596802,0.17034912
0.040527344,-1.5459595,-0.06329346
0.67529297,-0.6980591,0.113220215
-0.24902344,-1.4500122,0.01727295
0.11669922,-0.51031494,0.1239624
-0.029785156,-0.89801025,0.16009521
-0.014892578,-0.7190552,0.12762451
-0.084472656,-1.1192017,0.1671753
-0.18041992,-1.2835083,0.40960693
0.63916016,-1.4309692,-0.1375122
-0.104003906,-0.80303955,-0.2354126
0.4404297,-1.0984497,0.12738037
-0.3215332,-0.61602783,0.024353027
0.07470703,-0.87164307,0.11395264
-0.19458008,-0.80792236,0.07635498
0.0,-1.5264282,0.10003662
-0.13061523,-1.6087036,-0.0025024414
0.763916,-0.5772095,0.042907715
-0.20727539,-1.4700317,-0.0115356445
0.1262207,-0.5569458,0.051208496
-0.015625,-0.8423462,0.11590576
-0.006591797,-0.7554321,0.13934326
0.037109375,-0.9458618,0.16009521
-0.07324219,-1.3499146,0.37860107
0.49804688,-1.5562134,-0.16143799
-0.27783203,-0.76275635,-0.22833252
0.44628906,-1.1362915,0.199646
-0.35668945,-0.6560669,0.049987793
0.12207031,-0.7505493,0.053894043
-0.22290039,-0.8208618,0.11248779
-0.053222656,-1.428772,0.20843506
-0.24316406,-1.5315552,0.10736084
0.6123047,-0.7822876,-0.046447754
-0.1381836,-1.1721802,-0.06842041
0.19946289,-0.6633911,0.030456543
-0.07910156,-0.78985596,0.137146
0.03466797,-0.76226807,0.16107178
-0.012451172,-0.99786377,0.23138428
-0.049804688,-1.326477,0.29071045
-0.09667969,-1.5703735,-0.2000122
0.16235352,-0.6758423,-0.28253174
0.4050293,-1.296936,0.25115967
-0.35327148,-0.56622314,-0.0154418945
0.08203125,-0.8418579,0.055358887
-0.21435547,-0.76568604,0.12445068
-0.123535156,-1.4143677,0.1593628
0.021728516,-1.2359009,0.07244873
0.42456055,-0.92755127,-0.06524658
-0.033935547,-1.2979126,-0.017150879
0.18798828,-0.6760864,0.02532959
-0.039794922,-0.725647,0.1329956
0.09716797,-0.7954712,0.18695068
-0.061523438,-0.96051025,0.19769287
0.13427734,-1.2119751,0.39105225
0.08251953,-1.6243286,-0.06573486
-0.025146484,-0.6724243,-0.002746582
0.40576172,-1.3335571,0.117614746
-0.18920898,-0.63848877,0.06341553
0.0075683594,-0.7637329,0.08074951
-0.15771484,-0.78863525,0.098083496
0.0056152344,-1.242981,0.06439209
-0.07543945,-1.2109985,0.17059326
0.2763672,-1.019104,-0.044006348
0.25878906,-0.8909302,0.054626465
0.068847656,-0.8760376,0.0138549805
-0.088134766,-0.7173462,0.109802246
0.08178711,-0.79937744,0.17816162
-0.07714844,-0.8772583,0.22821045
0.16748047,-1.300354,0.1149292
-0.5102539,-1.5835571,-0.037902832
0.107666016,-0.7271118,-0.18536377
0.13427734,-1.3442993,-0.016662598
0.041503906,-0.61187744,0.0848999
-0.08251953,-0.6704712,0.034362793
-0.12451172,-0.9417114,0.101989746
-0.07446289,-1.0298462,0.1317749
0.008056641,-1.2407837,0.2526245
0.13671875,-1.2935181,-0.15435791
0.5366211,-0.7966919,0.053649902
-0.20727539,-1.0007935,-0.010559082
-0.029296875,-0.663147,0.14227295
0.032714844,-0.82940674,0.12030029
0.103027344,-0.8399048,0.18377686
0.048828125,-1.3184204,0.10467529
-0.32641602,-1.6165161,-0.13067627
0.16186523,-0.74591064,-0.08892822
0.06665039,-1.2407837,-0.16485596
0.016845703,-0.64019775,0.1083374
-0.0061035156,-0.61920166,0.04119873
-0.115722656,-0.9026489,0.058044434
-0.07324219,-1.1243286,0.11859131
0.06616211,-1.1448364,0.2975464
0.06347656,-1.1941528,-0.055480957
0.49047852,-0.82232666,0.04852295
-0.018798828,-0.92071533,-0.051086426
-0.060791016,-0.6289673,0.15618896
0.030761719,-0.8369751,0.19378662
0.10205078,-0.7984009,0.20794678
0.17578125,-1.2957153,0.1564331
-0.37695312,-1.7153931,-0.008605957
-0.0021972656,-0.77789307,-0.15948486
0.23535156,-1.3118286,0.014587402
-0.11254883,-0.59625244,0.081726074
0.045166016,-0.6939087,0.066589355
-0.16967773,-0.8460083,0.10736084
0.034423828,-1.1607056,0.101745605
-0.107666016,-1.1074829,0.26678467
0.19360352,-1.2114868,-0.11602783
0.29663086,-0.64630127,0.08319092
0.018310547,-1.145813,-0.045959473
-0.11401367,-0.6199341,0.15130615
0.0546875,-0.7866821,0.14520264
0.05493164,-0.89556885,0.22772217
0.08325195,-1.3526001,0.12835693
-0.38891602,-1.5183716,-0.06427002
0.07519531,-0.6983032,-0.26593018
0.2878418,-1.4536743,0.09100342
-0.23925781,-0.5808716,0.09075928
0.057128906,-0.6253052,0.0099487305
-0.2006836,-0.96832275,0.11468506
-0.12548828,-1.2063599,0.11810303
0.12402344,-1.1206665,0.07928467
0.2512207,-1.0774536,-0.12994385
0.3095703,-1.1384888,-0.037902832
0.024169922,-0.663147,-0.018615723
-0.024414062,-0.7268677,0.12615967
0.048339844,-0.7984009,0.16131592
-0.0053710938,-0.9343872,0.18035889
0.07373047,-1.2398071,0.28363037
0.24194336,-1.7910767,-0.21734619
-0.14135742,-0.4883423,0.030700684
0.5661621,-1.3413696,0.12542725
-0.25927734,-0.59259033,0.04925537
0.0637207,-0.798645,0.07879639
-0.19726562,-0.8530884,0.035339355
-0.016357422,-1.3721313,0.13006592
-0.08911133,-1.3731079,0.116882324
0.56591797,-0.7366333,-0.10748291
-0.07373047,-1.2244263,0.009460449
0.13793945,-0.60943604,-0.06719971
-0.022460938,-0.7949829,0.16375732
0.03491211,-0.7329712,0.15081787
-0.025146484,-1.05719,0.17962646
0.02734375,-1.2913208,0.38226318
0.17016602,-1.7063599,-0.16021729
-0.16845703,-0.5327759,-0.10748291
0.3659668,-1.2529907,0.13641357
-0.26733398,-0.6716919,0.0067749023
0.16088867,-0.7654419,0.09466553
-0.3149414,-0.84503174,0.11102295
0.04638672,-1.4546509,0.034118652
-0.31054688,-1.1348267,0.07269287
0.51123047,-0.8201294,-0.07183838
-0.095703125,-1.3135376,-0.097717285
0.24707031,-0.5857544,-0.0071411133
-0.106933594,-0.76397705,0.14691162
0.107910156,-0.78326416,0.15179443
-0.063964844,-1.0379028,0.20355225
0.12939453,-1.2085571,0.4064331
0.34472656,-1.6538696,-0.101379395
-0.33520508,-0.59820557,-0.15557861
0.5866699,-1.347229,0.20794678
-0.4104004,-0.6453247,0.0770874
0.115234375,-0.7703247,0.046081543
-0.1772461,-0.8452759,0.06781006
-0.043701172,-1.3660278,0.11151123
-0.10864258,-1.409729,0.15570068
0.46484375,-0.7334595,-0.028381348
-0.21850586,-1.2478638,0.0021362305
0.1928711,-0.66973877,0.008972168
-0.049072266,-0.83551025,0.16619873
0.052246094,-0.73760986,0.12298584
-0.0063476562,-0.9763794,0.1317749
0.02709961,-1.2896118,0.23773193
-0.15917969,-1.6392212,-0.09088135
-0.083740234,-0.5564575,-0.17779541
0.3696289,-1.4487915,-0.0032348633
-0.18041992,-0.5733032,0.09295654
0.009033203,-0.77178955,0.029968262
-0.12695312,-0.84039307,0.0770874
-0.016357422,-1.1050415,0.12640381
-0.092285156,-1.2722778,0.21990967
0.38916016,-1.060852,-0.04888916
0.2866211,-0.76397705,0.08319092
0.087890625,-0.9746704,0.012878418
-0.115234375,-0.862854,-0.054016113
0.015380859,-0.96881104,0.018005371
-0.114990234,-0.96051025,0.05731201
0.048828125,-0.94415283,0.04144287
-0.1730957,-1.2405396,0.1708374
-0.0715332,-1.333313,0.09246826
0.77978516,-0.8591919,-0.045959473
-0.0053710938,-0.95928955,-0.023742676
0.22192383,-0.7546997,0.04901123
-0.045654297,-0.8916626,0.117126465
0.011230469,-0.7918091,0.17767334
0.040771484,-0.86553955,0.1720581
0.15063477,-1.2244263,0.08660889
-0.1328125,-1.7329712,-0.23980713
0.20166016,-0.70513916,0.18255615
0.06640625,-1.0960083,-0.22613525
0.041015625,-0.704895,0.074645996
-0.072021484,-0.8167114,0.046813965
-0.084228516,-0.8045044,0.049987793
-0.0026855469,-1.0811157,0.08343506
-0.001953125,-1.1282349,0.25994873
0.17773438,-1.4463501,-0.08013916
0.6352539,-0.77789307,0.046081543
-0.22583008,-1.1211548,-0.047668457
0.057861328,-0.62213135,0.1149292
0.041015625,-0.9085083,0.12908936
-0.008544922,-0.77008057,0.13470459
-0.06665039,-1.1643677,0.07318115
-0.27905273,-1.232727,0.25408936
0.8991699,-1.1370239,-0.10357666
-0.33422852,-1.0442505,-0.20074463
0.3010254,-0.95147705,0.10345459
-0.26416016,-0.5906372,0.023864746
0.056396484,-0.90802,0.09246826
-0.15722656,-0.91192627,0.054870605
-0.05908203,-1.2888794,0.20037842
0.044677734,-1.4971313,-0.019348145
0.52246094,-0.6836548,0.009460449
-0.08569336,-1.4446411,-0.028381348
0.092285156,-0.5510864,0.04046631
-0.0068359375,-0.87945557,0.16595459
0.020507812,-0.71881104,0.14398193
0.0007324219,-0.97662354,0.18939209
0.10449219,-1.2490845,0.38861084
0.09741211,-1.7490845,-0.1963501
0.027832031,-0.706604,-0.14459229
0.2548828,-1.1292114,0.20306396
-0.17358398,-0.6951294,-0.051574707
0.01977539,-0.8994751,0.09442139
-0.2626953,-0.77789307,0.070251465
0.088378906,-1.2498169,0.1408081
-0.021728516,-1.1621704,0.2741089
0.17797852,-1.0120239,-0.034484863
0.1784668,-1.1372681,0.030944824
0.04272461,-0.7737427,-0.042053223
-0.07324219,-0.6362915,0.105651855
0.15893555,-0.9265747,0.18060303
-0.07910156,-0.8989868,0.1749878
0.15991211,-1.1536255,0.027038574
-0.71875,-1.4937134,-0.019836426
0.6784668,-0.83966064,-0.21832275
-0.16210938,-1.2131958,-0.035949707
0.14526367,-0.69781494,0.039978027
-0.06640625,-0.6758423,0.03704834
-0.115722656,-0.9204712,0.06903076
-0.10546875,-0.9636841,0.07122803
0.008300781,-1.348938,0.23236084
-0.08081055,-1.612854,-0.07989502
0.85375977,-0.4673462,0.124694824
-0.4038086,-1.5779419,-0.061828613
0.061035156,-0.49371338,0.12225342
-0.007080078,-0.909729,0.18621826
0.025146484,-0.71099854,0.1984253
-0.061279297,-1.0371704,0.11932373
-0.18969727,-1.3101196,0.31781006
0.63061523,-1.4290161,-0.109436035
-0.33081055,-0.69659424,-0.24810791
0.45996094,-1.1502075,0.16668701
-0.39575195,-0.6109009,0.00091552734
0.011474609,-0.8965454,0.081970215
-0.10986328,-0.7949829,0.074401855
0.010498047,-1.3279419,0.15423584
-0.27026367,-1.6172485,0.21307373
0.55615234,-0.7654419,-0.13726807
-0.04736328,-1.109436,0.050720215
0.1184082,-0.7271118,-0.023010254
-0.057861328,-0.83062744,0.15545654
0.033935547,-0.7456665,0.16253662
0.040039062,-0.93878174,0.14984131
0.140625,-1.2817993,0.15594482
-0.55566406,-1.47052,-0.14459229
0.3605957,-0.8115845,-0.2793579
0.0036621094,-1.164856,-0.04888916
0.09741211,-0.71173096,0.010437012
-0.09008789,-0.7527466,-0.0022583008
-0.04272461,-0.897522,0.059509277
-0.14672852,-0.9573364,0.050476074
0.13671875,-1.2605591,0.20111084
-0.10058594,-1.4978638,-0.1350708
0.782959,-0.6231079,0.105407715
-0.421875,-1.3486938,-0.0713501
0.18237305,-0.6104126,0.074645996
-0.07373047,-0.87701416,0.14422607
0.09667969,-0.7149048,0.16644287
-0.020507812,-0.9590454,0.19915771
0.01171875,-1.2437134,0.31097412
-0.18310547,-1.6079712,-0.11529541
0.045166016,-0.68463135,-0.065979004
0.26464844,-1.1651001,-0.12261963
