accelX,accelY,accelZ
0.3659668,-0.7630005,0.16156006
0.19873047,-1.159729,0.26971436
0.06518555,-0.6116333,0.1696167
0.053466797,-0.65509033,0.20404053
0.06616211,-0.91485596,0.27264404
0.10668945,-1.5076294,0.4953003
0.18652344,-1.2786255,-0.08843994
0.42993164,-0.9981079,-0.039611816
0.15917969,-1.0994263,0.22918701
0.13500977,-0.489563,0.06072998
0.02734375,-0.7620239,0.14764404
0.087890625,-1.1331177,0.2526245
-0.01928711,-1.2888794,0.4105835
0.59521484,-1.2637329,-0.0017700195
0.31054688,-1.1636353,0.15594482
0.122802734,-0.7984009,0.152771
-0.0034179688,-0.597229,0.16033936
0.061035156,-0.78009033,0.21600342
0.015136719,-1.2393188,0.2892456
-0.13598633,-1.40094,0.018249512
0.6491699,-1.1260376,0.011657715
-0.04638672,-1.1987915,0.31219482
0.06713867,-0.5442505,0.070251465
0.04321289,-0.7041626,0.089538574
0.016845703,-0.9380493,0.20550537
0.06933594,-1.3826294,0.37445068
0.28735352,-1.2879028,0.29266357
0.5292969,-1.093811,0.09320068
0.083984375,-0.9336548,0.17694092
-0.031982422,-0.53790283,0.15570068
0.095214844,-0.6773071,0.2699585
0.053222656,-1.0562134,0.3143921
-0.07763672,-1.3447876,0.31365967
0.6921387,-1.2984009,0.06854248
0.07080078,-1.015686,0.14813232
0.16699219,-0.5803833,0.09466553
0.013427734,-0.630188,0.06707764
-0.024169922,-0.84454346,0.19012451
0.140625,-1.3787231,0.3192749
0.3125,-1.378479,0.2723999
0.4345703,-0.93878174,0.018249512
0.12988281,-0.96710205,0.21429443
-0.024902344,-0.60528564,0.18109131
0.06933594,-0.6651001,0.28753662
0.0925293,-1.0513306,0.26507568
-0.103759766,-1.2400513,0.5807495
0.1484375,-1.2598267,-0.17242432
0.1171875,-1.0054321,-0.031066895
0.103515625,-0.8674927,0.1954956
0.07104492,-0.52008057,0.073913574
0.022949219,-0.87677,0.21380615
0.14770508,-1.1460571,0.32904053
-0.044433594,-1.2227173,0.19647217
0.6508789,-1.0432739,0.054382324
0.16259766,-1.067688,0.22650146
0.07055664,-0.6602173,0.17816162
0.0146484375,-0.5755005,0.18914795
0.050048828,-0.895813,0.21087646
0.106933594,-1.4143677,0.50653076
0.12133789,-1.4978638,-0.013244629
0.36328125,-0.7490845,-0.121154785
0.09790039,-1.0540161,0.2387085
0.10083008,-0.5286255,0.10687256
0.08642578,-0.8364868,0.18865967
0.07348633,-0.99420166,0.23358154
-0.08203125,-1.3286743,0.3348999
0.73095703,-1.3093872,0.043395996
0.36694336,-1.0908813,0.18328857
0.10498047,-0.7632446,0.13739014
0.011962891,-0.57354736,0.18939209
0.038330078,-0.8401489,0.23187256
0.04663086,-1.2974243,0.27069092
-0.107177734,-1.4512329,0.016540527
0.59472656,-1.0740356,-0.062805176
-0.078125,-1.1421509,0.26507568
0.1809082,-0.5889282,0.062194824
0.01953125,-0.73883057,0.09100342
0.057861328,-0.9319458,0.16326904
0.055908203,-1.333313,0.34051514
0.37646484,-1.3118286,0.19671631
0.48120117,-1.0386353,0.028259277
0.13720703,-0.987854,0.21356201
-0.0048828125,-0.5779419,0.15325928
0.053710938,-0.6265259,0.24017334
0.057861328,-0.9360962,0.25579834
0.044189453,-1.3372192,0.6508179
0.28173828,-1.4260864,-0.057922363
0.171875,-0.9651489,-0.07159424
0.19946289,-0.8479614,0.1486206
0.09033203,-0.5405884,0.089538574
0.0871582,-0.82403564,0.18206787
0.0793457,-1.0108032,0.24212646
-0.0793457,-1.3057251,0.33465576
0.6669922,-1.2659302,0.06488037
0.27514648,-1.1409302,0.18060303
0.0690918,-0.75177,0.1630249
0.0078125,-0.59576416,0.20477295
0.079589844,-0.85479736,0.25823975
0.06933594,-1.2754517,0.26434326
-0.13549805,-1.3721313,-0.012756348
0.60791016,-1.0403442,-0.038879395
0.06225586,-1.2183228,0.26141357
0.1496582,-0.55474854,0.12298584
0.052246094,-0.6795044,0.08905029
0.03173828,-0.93048096,0.20477295
0.13549805,-1.2312622,0.29901123
0.19262695,-1.2554321,0.22332764
0.55126953,-0.96221924,-0.00079345703
0.21264648,-1.1047974,0.1876831
0.07348633,-0.7136841,0.18475342
0.030761719,-0.56817627,0.14593506
0.05517578,-0.90167236,0.23040771
0.111572266,-1.3833618,0.43499756
-0.12939453,-1.241272,0.014343262
0.74560547,-1.0354614,-0.034240723
0.0009765625,-1.2300415,0.29119873
0.114990234,-0.59381104,0.09857178
0.10449219,-0.7300415,0.10272217
0.034179688,-0.91119385,0.16766357
0.14355469,-1.2532349,0.35809326
0.25195312,-1.2695923,0.31170654
0.43579102,-0.9158325,-0.008850098
0.22241211,-1.0691528,0.20452881
0.051513672,-0.69732666,0.18255615
0.051513672,-0.68218994,0.20794678
0.05078125,-0.8677368,0.17230225
0.12719727,-1.3374634,0.43597412
0.0063476562,-1.3057251,-0.03302002
0.66625977,-1.0664673,0.047302246
0.017822266,-1.1941528,0.34197998
0.14428711,-0.53619385,0.07196045
0.07397461,-0.7971802,0.16326904
0.0075683594,-0.9273071,0.17547607
0.095703125,-1.3623657,0.32000732
0.41333008,-1.3132935,0.22869873
0.4111328,-0.95391846,0.06439209
0.15649414,-1.0181274,0.18255615
-0.021240234,-0.6289673,0.16522217
0.092041016,-0.70147705,0.24285889
0.015625,-0.93585205,0.34613037
-0.004638672,-1.3596802,0.5541382
0.26245117,-1.4736938,0.026550293
0.16772461,-0.84820557,-0.09649658
0.15771484,-0.9463501,0.13348389
0.08642578,-0.5881958,0.10028076
0.05908203,-0.8335571,0.22357178
0.11694336,-1.046936,0.2699585
-0.11401367,-1.2888794,0.34954834
0.62646484,-1.362854,-0.08477783
0.36669922,-1.1387329,0.17303467
0.12719727,-0.8904419,0.1593628
-0.035888672,-0.5733032,0.20892334
0.04711914,-0.80133057,0.24945068
0.019042969,-1.1270142,0.27386475
-0.20507812,-1.2651978,0.074645996
0.68603516,-1.3137817,-0.034729004
-0.055419922,-1.279602,0.26556396
0.1459961,-0.5088501,0.09588623
0.056640625,-0.6746216,0.09173584
0.0053710938,-0.9529419,0.17596436
0.15258789,-1.2842407,0.35638428
0.23046875,-1.3442993,0.18890381
0.41430664,-0.91070557,0.04949951
0.18798828,-1.0376587,0.17108154
0.01171875,-0.60113525,0.1630249
0.07763672,-0.6704712,0.19525146
0.068847656,-0.96710205,0.32684326
0.039794922,-1.3442993,0.5519409
-0.07397461,-1.2261353,-0.25958252
0.51342773,-1.0623169,-0.06939697
0.1730957,-0.99420166,0.24969482
0.125,-0.4841919,0.11395264
-0.026855469,-0.8850708,0.18011475
0.11621094,-1.0430298,0.21917725
-0.061523438,-1.256897,0.3920288
0.5373535,-1.3411255,0.050231934
0.3840332,-1.107727,0.062194824
0.111816406,-0.9241333,0.16497803
0.001953125,-0.6355591,0.17889404
0.10864258,-0.7739868,0.25164795
0.040039062,-1.0007935,0.30291748
-0.12084961,-1.1934204,0.4725952
0.12768555,-1.2817993,-0.1729126
0.07128906,-0.9302368,0.026306152
0.07885742,-0.7805786,0.17523193
0.2121582,-0.5359497,0.08734131
0.01171875,-0.92926025,0.21087646
0.19555664,-0.98321533,0.25408936
-0.2536621,-1.319397,0.2765503
0.6437988,-1.1983032,0.030700684
0.44506836,-1.0491333,0.16595459
0.123291016,-0.82403564,0.1071167
0.08691406,-0.6411743,0.1383667
0.03540039,-0.8484497,0.2675171
0.07861328,-1.0039673,0.20037842
-0.045410156,-1.1558228,0.40985107
0.43432617,-1.2913208,-0.10308838
0.15698242,-0.8960571,0.019226074
0.09033203,-0.79815674,0.13348389
0.20507812,-0.65289307,0.10687256
-0.020996094,-0.79034424,0.21087646
0.13891602,-1.0532837,0.24481201
0.0012207031,-1.2432251,0.2411499
0.49536133,-1.1375122,-0.032043457
0.17773438,-1.0974731,0.19598389
0.017333984,-0.6734009,0.09979248
0.10571289,-0.5820923,0.1918335
-0.022705078,-0.9229126,0.20452881
0.053466797,-1.3726196,0.4640503
0.20043945,-1.4553833,-0.047668457
0.4099121,-0.78570557,0.019714355
0.08666992,-1.2012329,0.25726318
0.16210938,-0.5437622,0.094177246
0.068359375,-0.75909424,0.1696167
0.08569336,-0.9282837,0.18572998
-0.0625,-1.36969,0.42010498
0.59521484,-1.3657837,-0.0029907227
0.37353516,-1.1599731,0.13739014
0.10473633,-0.88360596,0.20574951
-0.030029297,-0.600647,0.14129639
0.045898438,-0.79400635,0.27069092
0.07543945,-1.1240845,0.25506592
-0.15234375,-1.2136841,0.25091553
0.40063477,-1.2012329,-0.13238525
0.0063476562,-1.1206665,0.074401855
0.12084961,-0.63165283,0.17279053
0.12207031,-0.60772705,0.08514404
0.017578125,-0.9512329,0.21795654
0.1472168,-1.1465454,0.34710693
0.034423828,-1.2754517,0.21380615
0.560791,-0.9273071,0.05706787
0.18286133,-1.0830688,0.19744873
0.022705078,-0.6995239,0.23236084
0.057128906,-0.6729126,0.19500732
0.04663086,-0.9014282,0.24725342
-0.032714844,-1.2979126,0.4520874
0.33618164,-1.3760376,0.055358887
0.19995117,-0.94415283,-0.093566895
0.18676758,-0.84820557,0.12738037
0.10083008,-0.5952759,0.093688965
0.1015625,-0.84503174,0.21746826
0.08886719,-1.013977,0.276062
-0.14892578,-1.3469849,0.2855835
0.5605469,-1.0828247,0.014831543
0.38793945,-1.1035767,0.13543701
0.10205078,-0.7263794,0.14227295
0.049316406,-0.6174927,0.17962646
0.10424805,-0.9180298,0.23797607
0.11303711,-1.3377075,0.30340576
0.11621094,-1.5606079,-0.0029907227
0.31591797,-0.831604,0.070251465
0.14428711,-1.0083618,0.19671631
0.10473633,-0.6741333,0.12689209
0.0925293,-0.7695923,0.1486206
0.09375,-1.0169067,0.2177124
0.0048828125,-1.2510376,0.32025146
0.6057129,-1.1445923,0.14813232
0.33154297,-1.1382446,0.043640137
0.15844727,-0.7962036,0.16790771
0.100097656,-0.59552,0.097595215
0.053710938,-0.8311157,0.30706787
0.16064453,-1.1467896,0.28851318
-0.07348633,-1.3189087,0.2526245
0.5966797,-1.1914673,0.030456543
-0.021972656,-1.0857544,0.18914795
0.19018555,-0.6680298,0.13079834
0.10961914,-0.6375122,0.09954834
0.0017089844,-0.98883057,0.24066162
0.1706543,-1.2305298,0.3319702
0.24584961,-1.3643188,0.3234253
0.55029297,-0.973938,-0.014709473
0.118896484,-1.0408325,0.2826538
0.037353516,-0.65948486,0.12005615
0.15649414,-0.6663208,0.20843506
0.043701172,-0.9451294,0.22454834
0.042236328,-1.2944946,0.4118042
0.35595703,-1.3787231,-0.07696533
0.18823242,-0.81207275,-0.14117432
0.28759766,-1.1677856,0.23797607
0.11206055,-0.5906372,0.12664795
0.025390625,-0.73394775,0.17181396
0.16723633,-0.94122314,0.17303467
-0.033691406,-1.3152466,0.36932373
0.6977539,-1.2827759,0.047302246
0.3540039,-1.104065,0.14837646
0.104003906,-0.8296509,0.13201904
0.059326172,-0.6099243,0.18890381
0.03540039,-0.7930298,0.29608154
0.09667969,-1.1841431,0.2543335
-0.17285156,-1.1834106,0.14300537
0.6040039,-1.2368774,-0.043518066
-0.052734375,-1.128479,0.15008545
0.17456055,-0.6380005,0.11419678
0.1015625,-0.6453247,0.08685303
-0.034179688,-0.88531494,0.20965576
0.19116211,-1.2371216,0.3085327
0.38354492,-1.5200806,0.14984131
0.5095215,-1.0650024,-0.010070801
0.1586914,-0.973938,0.19866943
0.057128906,-0.6069946,0.11004639
0.055419922,-0.7085571,0.25042725
0.16674805,-0.9529419,0.28729248
0.02319336,-1.2649536,0.53289795
0.28930664,-1.3118286,-0.05255127
0.06933594,-0.92974854,-0.038391113
0.20922852,-0.82476807,0.14300537
0.12988281,-0.5708618,0.09564209
0.046875,-0.8250122,0.20599365
0.20703125,-1.0667114,0.26287842
-0.115722656,-1.1785278,0.22796631
0.63427734,-1.0593872,0.0006713867
0.20532227,-1.1548462,0.1864624
0.068359375,-0.72076416,0.12005615
0.02368164,-0.6355591,0.15692139
0.025146484,-0.83721924,0.22283936
0.06958008,-1.2481079,0.31732178
-0.064453125,-1.4060669,-0.022766113
0.84594727,-1.0252075,0.11956787
-0.06640625,-1.1921997,0.2218628
0.18310547,-0.5967407,0.10809326
0.04321289,-0.7241821,0.15081787
0.037841797,-0.9053345,0.1671753
0.091552734,-1.3870239,0.3451538
0.52612305,-1.4275513,0.24432373
0.38061523,-0.9834595,0.00579834
0.118652344,-0.98516846,0.18572998
0.028808594,-0.67681885,0.19915771
0.06518555,-0.72076416,0.25115967
-0.0029296875,-1.0159302,0.30438232
-0.061035156,-1.2610474,0.58148193
0.2631836,-1.3167114,-0.1741333
0.040771484,-0.80914307,0.018493652
0.22241211,-0.84161377,0.2230835
0.2355957,-0.4973755,0.09124756
-0.004638672,-0.8936157,0.22528076
0.19799805,-1.112854,0.31121826
-0.09277344,-1.1743774,0.16693115
0.7319336,-1.2156372,0.015563965
0.21484375,-1.0618286,0.16937256
0.092285156,-0.72442627,0.16571045
0.028564453,-0.5569458,0.17108154
0.04296875,-0.8833618,0.19866943
0.084228516,-1.2647095,0.31292725
0.017578125,-1.4297485,-0.046691895
0.7531738,-1.0408325,0.09906006
-0.064208984,-1.2559204,0.3126831
0.1628418,-0.49908447,0.09588623
0.02758789,-0.7817993,0.14276123
0.052978516,-0.94122314,0.20159912
0.07299805,-1.3189087,0.36712646
0.58935547,-1.430481,0.17230225
0.38452148,-1.0376587,0.04144287
0.11791992,-0.9055786,0.19818115
-0.015136719,-0.6643677,0.14837646
0.07299805,-0.78375244,0.23626709
0.028076172,-0.96759033,0.30023193
-0.008056641,-1.3091431,0.66619873
0.07348633,-1.329895,-0.20489502
0.1262207,-0.96099854,0.036315918
0.21728516,-0.84210205,0.17010498
0.119140625,-0.55841064,0.10784912
0.021484375,-0.77911377,0.18450928
0.25097656,-1.0999146,0.28607178
-0.103027344,-1.2046509,0.28631592
0.67456055,-1.1109009,-0.002746582
0.31640625,-1.1360474,0.1762085
0.08886719,-0.786438,0.14105225
0.025390625,-0.581604,0.20965576
0.03466797,-0.8140259,0.16326904
0.09423828,-1.4087524,0.33880615
0.059814453,-1.5132446,-0.035705566
0.65844727,-0.7827759,0.06854248
0.010498047,-1.2005005,0.2597046
0.095703125,-0.5791626,0.09515381
0.072509766,-0.78375244,0.19281006
0.07910156,-0.91729736,0.21380615
0.06640625,-1.3589478,0.3378296
0.5895996,-1.315979,0.11175537
