accelX,accelY,accelZ
0.079833984,-0.72906494,0.070495605
0.12597656,-0.7202759,0.21234131
0.09887695,-1.0430298,0.38568115
-0.16601562,-0.8189087,0.117614746
0.10253906,-1.2183228,0.44281006
0.12597656,-1.3684692,0.13909912
0.037841797,-0.94659424,0.04095459
-0.07006836,-0.86187744,-0.04473877
0.28393555,-1.2210083,0.37420654
-0.015625,-0.5630493,0.094177246
-0.2705078,-0.88726807,0.09466553
0.036865234,-0.9011841,0.29266357
-0.009765625,-0.8479614,0.12786865
-0.021728516,-1.0222778,0.26727295
0.50219727,-1.4190063,0.28851318
0.3955078,-1.4395142,0.2086792
-0.08129883,-0.75201416,0.09564209
0.10058594,-0.42926025,0.05633545
0.25512695,-0.90997314,0.27142334
-0.10180664,-0.892395,0.26971436
-0.13891602,-0.9356079,0.08441162
0.12475586,-1.6074829,0.2662964
0.12597656,-0.94732666,-0.005432129
-0.06347656,-1.0386353,0.05316162
0.17553711,-1.2488403,0.44769287
-0.017578125,-0.4680786,0.034362793
-0.11206055,-0.6121216,0.05657959
-0.00048828125,-1.142395,0.30511475
-0.07006836,-0.83843994,0.17718506
0.072021484,-1.0925903,0.27752686
0.50805664,-1.1890259,0.20574951
0.2770996,-1.5940552,0.19915771
-0.13574219,-0.74053955,0.11077881
0.03881836,-0.3682251,0.093688965
0.14624023,-0.756897,0.2843628
-0.18603516,-1.0388794,0.2597046
0.016357422,-1.005188,0.3361206
0.21411133,-1.6150513,0.049987793
0.018066406,-0.74005127,0.059265137
-0.044433594,-1.2861938,-0.046447754
0.2758789,-0.9216919,0.2321167
-0.10546875,-0.38116455,-0.0056762695
-0.25,-0.84820557,0.13739014
0.08886719,-1.0430298,0.33319092
-0.09863281,-0.96661377,0.17230225
0.32714844,-1.7542114,0.097595215
0.44799805,-0.91656494,0.0004272461
-0.0024414062,-1.0588989,0.24359131
-0.08325195,-0.46539307,-0.0020141602
0.16894531,-0.41290283,0.09246826
0.06298828,-1.3294067,0.45965576
-0.25634766,-0.83843994,-0.018859863
0.32885742,-1.5852661,0.48236084
0.0026855469,-1.0274048,-0.16778564
-0.10644531,-1.0535278,0.08709717
0.13745117,-1.0703735,0.3649292
-0.011962891,-0.52545166,-0.023742676
-0.013916016,-0.5647583,0.09661865
-0.1159668,-1.0161743,0.29437256
-0.044189453,-1.0215454,0.17181396
0.08544922,-1.8115845,0.3397827
0.37109375,-0.68218994,0.105163574
-0.28564453,-1.4578247,0.2850952
-0.19970703,-0.48760986,0.028747559
0.17553711,-0.3743286,0.11907959
0.15820312,-1.0803833,0.3583374
-0.32495117,-0.94415283,0.19207764
0.17626953,-1.2852173,0.3451538
0.2722168,-1.255188,0.13250732
-0.5673828,-0.75177,-0.1194458
0.63061523,-1.6392212,0.37957764
0.13305664,-0.45635986,0.05657959
-0.28173828,-0.43756104,-0.0881958
0.041748047,-1.1455688,0.3283081
0.095703125,-0.8501587,0.23382568
-0.16137695,-1.0752563,0.12371826
0.54296875,-1.3338013,0.3414917
0.08911133,-1.7442017,0.23187256
0.031982422,-0.76812744,0.2033081
-0.032226562,-0.44244385,0.043640137
0.08227539,-0.63067627,0.2020874
-0.0024414062,-1.0911255,0.37225342
-0.016845703,-0.9500122,0.19232178
-0.123535156,-1.6248169,0.3612671
0.05419922,-0.87823486,-0.11505127
0.05883789,-1.3901978,0.15472412
0.03125,-0.9649048,0.3468628
-0.014404297,-0.3550415,0.04901123
-0.19384766,-0.71539307,0.1539917
-0.041259766,-1.0366821,0.31072998
-0.12963867,-0.97613525,0.18890381
0.035888672,-1.7161255,0.30218506
0.5407715,-0.911438,0.2387085
-0.14868164,-1.1672974,0.1539917
-0.20532227,-0.46246338,0.027770996
0.12207031,-0.50982666,0.13665771
0.03930664,-1.142395,0.39666748
-0.2319336,-0.83599854,0.16522217
0.25878906,-1.4116821,0.20111084
0.14501953,-1.0366821,0.03778076
-0.10229492,-1.5791626,0.12567139
0.115234375,-1.013977,0.39056396
0.016845703,-0.43389893,0.009216309
-0.13500977,-0.6189575,0.11468506
-0.064941406,-0.8987427,0.2526245
-0.20800781,-1.0056763,0.20135498
-0.114990234,-1.6360474,0.25115967
0.58081055,-0.8657837,0.17596436
-0.19677734,-1.1494751,0.1630249
-0.10913086,-0.60894775,0.08465576
0.10571289,-0.44732666,0.13421631
0.03515625,-0.8118286,0.30291748
-0.1640625,-1.0484009,0.22283936
0.091308594,-1.1567993,0.42523193
0.12841797,-1.1726685,-0.055725098
0.1706543,-1.5747681,0.3270874
-0.057861328,-1.024231,0.3834839
0.044921875,-0.48858643,0.023132324
-0.024169922,-0.5823364,0.09906006
-0.14697266,-0.97979736,0.2999878
-0.11621094,-1.0359497,0.22772217
0.0769043,-1.638977,0.054138184
0.61206055,-0.9483032,0.018249512
-0.15112305,-1.1426392,0.21600342
-0.13793945,-0.5618286,0.03729248
0.13110352,-0.49346924,0.12860107
0.060791016,-1.0349731,0.3390503
-0.15405273,-0.88653564,0.14007568
0.18383789,-1.3623657,0.12225342
0.23535156,-0.82281494,0.09857178
-0.020507812,-1.8247681,0.25531006
0.08618164,-0.89923096,0.31195068
0.02734375,-0.38482666,0.066345215
-0.08544922,-0.7102661,0.12420654
-0.06567383,-0.9483032,0.2868042
-0.19262695,-0.99835205,0.26849365
0.328125,-2.0,0.2616577
0.57177734,-1.041565,0.14202881
-0.16796875,-1.0371704,0.15814209
-0.010986328,-0.5889282,0.09124756
0.12475586,-0.50982666,0.13104248
0.041259766,-1.0488892,0.38861084
-0.14160156,-0.90411377,0.109802246
0.014160156,-1.3491821,0.19256592
0.25097656,-1.0877075,-0.028625488
0.083496094,-1.460022,0.18914795
-0.07055664,-0.9463501,0.25238037
0.1508789,-0.48443604,-0.010070801
0.032958984,-0.7769165,0.20526123
-0.19458008,-0.86260986,0.20550537
-0.060791016,-0.9824829,0.22503662
0.24438477,-1.8186646,0.2826538
0.3557129,-0.7217407,0.04071045
-0.111572266,-1.4199829,0.18988037
-0.011230469,-0.5064087,0.09661865
0.1352539,-0.44439697,0.06585693
0.08935547,-1.0964966,0.38006592
-0.12084961,-0.8184204,0.093933105
0.24609375,-1.4273071,0.3139038
0.24853516,-1.2713013,0.10882568
-0.29907227,-0.7324829,-0.13018799
0.5683594,-1.65094,0.2555542
0.087402344,-0.48638916,0.03704834
-0.20825195,-0.4446411,-0.032043457
-0.028320312,-0.9673462,0.22137451
0.006591797,-1.0493774,0.20477295
0.1315918,-1.0569458,0.0836792
0.46655273,-1.0618286,0.12347412
0.020751953,-1.7556763,0.27313232
0.07861328,-0.69244385,0.086364746
-0.0068359375,-0.44854736,0.036315918
0.08666992,-0.7564087,0.25628662
-0.0715332,-0.94610596,0.21966553
0.03149414,-1.1807251,0.43963623
0.09838867,-1.5232544,0.019714355
-0.0012207031,-0.85113525,-0.022521973
0.15356445,-1.3718872,0.04876709
0.20214844,-0.7173462,0.06414795
-0.014892578,-0.34674072,0.021911621
-0.15136719,-1.0501099,0.15740967
-0.0075683594,-0.89263916,0.29486084
-0.06518555,-1.0620728,0.23529053
0.12670898,-1.6528931,0.15716553
0.5522461,-0.7402954,0.21063232
-0.11328125,-1.1587524,0.14202881
-0.05908203,-0.5803833,0.06829834
0.12719727,-0.5105591,0.12860107
0.17382812,-0.9673462,0.41204834
-0.20410156,-0.8838501,0.121032715
0.19995117,-1.2615356,0.54364014
0.18701172,-1.4439087,0.0060424805
-0.2590332,-0.90289307,-0.0154418945
0.24023438,-1.253479,0.27435303
0.1274414,-0.612854,0.050476074
-0.09326172,-0.4824829,0.008483887
-0.13549805,-1.1148071,0.3007202
-0.072509766,-0.8272095,0.19573975
0.17822266,-1.1619263,0.2506714
0.5131836,-1.0552368,0.14886475
0.32470703,-1.5671997,0.17523193
-0.015136719,-0.76568604,0.18621826
0.0126953125,-0.4006958,-0.010314941
0.16308594,-0.70147705,0.23919678
-0.071777344,-1.1646118,0.32855225
-0.10522461,-0.9378052,0.20404053
-0.21704102,-1.4666138,0.19354248
0.35791016,-0.9324341,0.003112793
0.27416992,-1.6096802,0.14984131
-0.14697266,-0.8826294,0.2645874
0.05883789,-0.38970947,-0.010803223
0.040039062,-0.8093872,0.22088623
-0.3359375,-1.0022583,0.23797607
-0.0637207,-0.89556885,0.26239014
0.33740234,-1.8613892,0.29901123
0.2631836,-0.7144165,0.039733887
-0.048583984,-1.6060181,0.24456787
0.16137695,-0.52593994,0.101501465
0.028564453,-0.46417236,0.07489014
-0.02319336,-1.0386353,0.3324585
-0.04345703,-0.9221802,0.24993896
0.15844727,-1.0933228,0.4730835
-0.08251953,-1.4561157,0.019958496
0.0087890625,-0.85162354,-0.112854004
0.28125,-1.3235474,0.22381592
0.11352539,-0.6253052,0.027282715
0.0390625,-0.45855713,0.014099121
-0.10107422,-1.0159302,0.2189331
-0.0546875,-0.89141846,0.18792725
0.013916016,-1.050354,0.37738037
0.24243164,-1.1856079,0.08465576
0.48632812,-1.5874634,0.16888428
-0.20385742,-0.95880127,0.093444824
0.037597656,-0.57159424,0.12005615
0.21582031,-0.6140747,0.18719482
-0.025634766,-0.90216064,0.2645874
-0.036621094,-1.065979,0.15985107
-0.048828125,-1.0628052,0.20721436
0.23486328,-1.2717896,0.062438965
0.053466797,-0.958313,0.07635498
-0.095947266,-1.3391724,0.47991943
0.038330078,-0.4475708,0.08074951
0.0024414062,-0.54571533,0.113220215
-0.0949707,-1.0835571,0.33538818
-0.08251953,-0.9260864,0.2164917
0.04321289,-1.135315,0.33148193
0.49975586,-0.9522095,0.21600342
0.028076172,-1.8015747,0.199646
-0.011474609,-0.7944946,0.17010498
0.0017089844,-0.5342407,0.13934326
0.01171875,-0.7383423,0.2538452
-0.048828125,-0.9246216,0.28656006
0.14282227,-1.0964966,0.34466553
-0.33129883,-1.4448853,0.22723389
0.3491211,-0.8687134,0.16644287
0.045898438,-1.5601196,0.08441162
0.08984375,-0.8948364,0.27752686
0.047851562,-0.41778564,0.06561279
-0.24023438,-0.9536743,0.16131592
-0.059326172,-0.89385986,0.27264404
-0.14550781,-0.9373169,0.22698975
0.10986328,-1.8230591,0.29364014
0.4243164,-0.66192627,0.2753296
-0.11035156,-1.6304321,0.042175293
-0.114746094,-0.65289307,0.18939209
0.10986328,-0.5310669,0.1149292
0.12890625,-1.0374146,0.45599365
-0.18676758,-0.82110596,0.16131592
0.19628906,-1.1455688,0.49554443
0.09008789,-1.6516724,0.081726074
-0.28564453,-0.88897705,0.038269043
0.21899414,-1.12677,0.13787842
0.09765625,-0.8562622,0.1852417
-0.13134766,-0.40631104,0.046325684
-0.10253906,-1.1316528,0.23309326
-0.1887207,-0.87164307,0.29925537
-0.076660156,-0.96588135,0.20550537
0.06640625,-1.803772,0.18914795
0.46191406,-0.7798462,0.18914795
-0.25708008,-1.4314575,0.08319092
-0.09423828,-0.5960083,0.1005249
0.16308594,-0.5310669,0.13421631
0.15917969,-1.0081177,0.38983154
-0.18310547,-0.8496704,0.13763428
0.0625,-1.159729,0.4845581
0.064941406,-1.479065,0.0289917
-0.0871582,-0.86724854,0.042907715
0.18603516,-1.2766724,0.26800537
0.078125,-0.6231079,0.059265137
-0.0075683594,-0.42218018,0.08148193
-0.17285156,-1.1760864,0.29925537
-0.1508789,-0.7671509,0.2699585
-0.064697266,-1.0071411,0.37127686
0.16894531,-1.4209595,0.21282959
0.4543457,-1.0112915,0.31488037
-0.09814453,-0.9729614,0.2164917
-0.16113281,-0.5335083,0.117126465
0.12084961,-0.6189575,0.23187256
0.140625,-0.97125244,0.3751831
-0.35351562,-0.9956665,0.184021
0.041015625,-1.5549927,0.32855225
0.26391602,-0.90826416,0.1149292
-0.15405273,-1.1101685,0.008239746
0.27001953,-1.144104,0.5043335
-0.006591797,-0.39849854,0.06488037
-0.22436523,-0.78204346,0.090026855
-0.033203125,-1.0650024,0.32489014
-0.05883789,-0.8731079,0.17889404
-0.14794922,-1.4668579,0.17352295
0.75390625,-0.9351196,0.24285889
-0.025390625,-1.6714478,0.11932373
-0.2097168,-0.6868286,0.17376709
0.028808594,-0.42193604,0.0914917
0.22753906,-0.9199829,0.39715576
-0.0847168,-0.8213501,0.2321167
0.03515625,-1.0422974,0.42547607
0.20703125,-1.6480103,0.09637451
-0.16992188,-0.8069458,-0.04547119
0.23120117,-1.2175903,0.09637451
0.16577148,-0.7769165,0.13153076
-0.084228516,-0.40045166,0.05340576
-0.19628906,-1.1428833,0.25457764
-0.17089844,-0.86065674,0.30633545
-0.0769043,-1.0466919,0.23138428
0.20898438,-1.6792603,0.23260498
0.2746582,-0.70269775,0.18157959
-0.026123047,-1.1948853,0.19232178
-0.09033203,-0.51763916,0.12225342
0.03100586,-0.53985596,0.15570068
0.03857422,-1.1201782,0.40179443
-0.19555664,-0.88165283,0.15032959
0.11303711,-1.3374634,0.29193115
0.18701172,-1.177063,0.00970459
-0.27783203,-1.0650024,0.09979248
0.19702148,-1.2427368,0.54119873
0.10522461,-0.4212036,0.04925537
-0.14257812,-0.63116455,0.08660889
0.01928711,-1.0239868,0.31903076
-0.12109375,-0.7937622,0.16619873
0.0847168,-1.1685181,0.19036865
0.4260254,-1.0601196,0.3361206
0.022705078,-1.6567993,0.1942749
-0.32373047,-0.6502075,0.039245605
0.103759766,-0.58258057,0.18377686
0.18066406,-0.7456665,0.29437256
-0.19018555,-0.89801025,0.28167725
0.020507812,-1.0569458,0.37908936
-0.1953125,-1.5779419,0.2321167
0.2211914,-0.77471924,0.10418701
0.10864258,-1.520813,0.15423584
0.07788086,-0.84747314,0.24676514
-0.053710938,-0.43511963,0.062927246
-0.14624023,-0.8635864,0.2501831
-0.084228516,-0.8147583,0.26898193
-0.16772461,-0.96954346,0.24334717
0.15454102,-1.954895,0.41204834
0.42089844,-0.84820557,0.39031982
0.09448242,-1.1621704,0.021911621
-0.2939453,-0.642395,0.1359253
0.16381836,-0.4505005,0.15106201
0.2253418,-1.041565,0.4845581
-0.22558594,-0.80255127,0.11444092
0.19604492,-1.1882935,0.47869873
0.0017089844,-1.3379517,0.024841309
-0.12426758,-0.85113525,0.07562256
0.36401367,-1.3726196,0.14202881
0.123535156,-0.7258911,0.12738037
-0.0859375,-0.47857666,0.026550293
-0.14624023,-1.0239868,0.23016357
-0.037353516,-0.829895,0.22161865
-0.15234375,-0.9768677,0.29730225
0.34472656,-1.4612427,0.2374878
0.5654297,-0.87579346,0.30584717
-0.0703125,-0.9624634,0.112976074
-0.12768555,-0.61553955,0.10443115
0.18847656,-0.6211548,0.1798706
0.07885742,-1.0613403,0.38079834
-0.13916016,-0.7527466,0.101989746
0.14233398,-1.6121216,0.38519287
0.103027344,-0.80548096,0.07513428
-0.1459961,-1.2883911,0.08734131
