accelX,accelY,accelZ
-0.045166016,-0.99053955,0.007019043
-0.044921875,-0.9805298,-0.016906738
-0.080078125,-1.1499634,0.101989746
-0.08081055,-0.92803955,0.07635498
-0.07543945,-0.89801025,0.057556152
-0.03515625,-0.98638916,0.022644043
-0.10620117,-1.0901489,0.070739746
-0.010009766,-1.1177368,-0.050842285
0.1586914,-1.1221313,0.00018310547
0.36645508,-0.9194946,0.04437256
0.20361328,-1.1392212,0.10296631
0.016601562,-0.8218384,0.06121826
0.103271484,-0.81500244,0.06121826
-0.0031738281,-0.75494385,0.11883545
0.12646484,-1.0440063,0.15447998
-0.19702148,-1.4956665,0.0026245117
-0.033691406,-0.9212036,-0.03643799
0.091552734,-1.1633911,-0.23590088
-0.057128906,-1.1223755,-0.07720947
0.0637207,-0.79888916,-0.032043457
-0.10546875,-0.6453247,0.038513184
-0.012451172,-0.74835205,0.0099487305
-0.16235352,-1.2522583,0.08538818
0.51123047,-1.1309204,-0.20147705
0.24682617,-1.5923462,-0.23614502
0.3022461,-1.0198364,0.019226074
-0.056152344,-0.77667236,0.050964355
-0.024169922,-0.5310669,0.13494873
0.012939453,-0.74346924,0.117126465
0.22192383,-1.4141235,0.2543335
-0.3310547,-1.2427368,-0.32086182
0.42797852,-1.072815,-0.3399048
0.0715332,-1.4011841,-0.23712158
-0.017333984,-0.68585205,-0.06378174
0.049560547,-0.6226196,0.0053100586
-0.26660156,-0.5484009,0.023620605
-0.10424805,-1.3462524,0.0036010742
0.05102539,-1.536438,-0.33306885
0.77319336,-1.0567017,-0.14849854
0.203125,-1.1140747,-0.06573486
-0.083496094,-0.8574829,0.022399902
0.10620117,-0.54278564,0.07196045
-0.060058594,-0.6397095,0.14422607
0.24072266,-1.3308716,0.10418701
-0.6140137,-1.5547485,-0.1428833
0.3095703,-0.9776001,-0.3423462
0.020507812,-1.3008423,0.08709717
0.05493164,-0.7034302,-0.070373535
-0.0068359375,-0.69073486,0.005554199
-0.0126953125,-0.5996704,-0.026428223
-0.16870117,-1.3755493,0.03656006
-0.033691406,-1.2700806,-0.27008057
0.810791,-0.7805786,-0.08843994
0.011962891,-1.3081665,-0.0725708
0.040527344,-0.9680786,0.12957764
0.033203125,-0.52349854,0.047302246
-0.10644531,-0.6577759,0.1864624
0.25878906,-1.0945435,0.17425537
-0.37524414,-1.4707642,-0.008605957
0.2529297,-0.9468384,-0.20098877
0.13110352,-1.3989868,-0.03668213
0.040771484,-0.87164307,-0.1116333
0.0073242188,-0.6655884,0.02923584
-0.052978516,-0.5545044,-0.030334473
-0.09692383,-1.1992798,0.030700684
0.022949219,-1.3982544,-0.14630127
0.81640625,-0.9302368,-0.015197754
0.0390625,-1.3186646,-0.15997314
0.08203125,-0.93170166,0.14178467
-0.07128906,-0.56427,0.07928467
-0.04321289,-0.6934204,0.19696045
0.12231445,-0.8965454,0.17962646
-0.4296875,-1.5498657,-0.009094238
0.44482422,-0.83306885,-0.28546143
-0.046142578,-1.522522,-0.13189697
0.16186523,-0.8604126,-0.13238525
-0.016113281,-0.53692627,0.00018310547
-0.095947266,-0.61187744,-0.010314941
-0.15600586,-1.1853638,-0.02520752
0.0017089844,-1.2407837,-0.03717041
0.58569336,-1.0979614,0.051696777
-0.053466797,-1.253479,-0.030334473
0.12207031,-0.99053955,0.15887451
-0.028808594,-0.4932251,0.022888184
0.012451172,-0.6856079,0.09051514
-0.09423828,-1.0181274,0.04168701
-0.1694336,-1.6567993,-0.013244629
-0.008300781,-0.9507446,-0.1843872
0.1694336,-1.4014282,-0.20904541
-0.0061035156,-0.9209595,-0.06378174
0.079833984,-0.7461548,-0.04107666
-0.07861328,-0.55426025,0.018005371
-0.012207031,-1.006897,-0.00030517578
-0.084472656,-1.4234009,0.07928467
0.33813477,-0.96661377,-0.059631348
0.328125,-1.2444458,-0.09234619
0.25463867,-0.94366455,0.016540527
-0.15258789,-0.9194946,0.08050537
0.103027344,-0.52301025,0.105895996
0.020996094,-0.79278564,0.15447998
0.21313477,-1.4463501,0.25042725
-0.008056641,-1.2888794,-0.3657837
-0.026367188,-1.0286255,-0.28692627
0.23339844,-1.0066528,-0.18487549
-0.119384766,-0.6104126,-0.035461426
0.08300781,-0.6668091,0.026306152
-0.08154297,-0.7210083,-0.034729004
-0.1484375,-1.3997192,0.0211792
0.37719727,-1.1362915,-0.28179932
0.39746094,-1.0745239,-0.20562744
0.103271484,-1.1304321,-0.019348145
-0.047607422,-0.83721924,0.086364746
-0.0087890625,-0.5322876,0.14276123
-0.034179688,-0.7359009,0.16082764
0.17822266,-1.2966919,0.09710693
-0.21923828,-1.4258423,-0.2041626
0.10644531,-1.0757446,-0.18096924
0.03100586,-1.0598755,-0.124816895
-0.13183594,-0.72491455,-0.055236816
-0.013671875,-0.72613525,0.0026245117
-0.018554688,-0.6865845,0.00018310547
-0.19458008,-1.2276001,0.038269043
0.47094727,-1.3411255,-0.1350708
0.3322754,-1.1345825,-0.19952393
0.26416016,-1.0562134,0.042663574
-0.032226562,-0.880188,0.09100342
0.06958008,-0.4578247,0.13861084
-0.032714844,-0.71832275,0.1281128
0.2043457,-1.4465942,0.15716553
-0.31933594,-1.4585571,-0.32965088
0.1459961,-1.0195923,-0.19293213
0.2722168,-1.0205688,-0.2131958
-0.13671875,-0.7710571,0.01751709
-0.013183594,-0.68170166,0.0014038086
-0.084228516,-0.61602783,-0.0725708
-0.2644043,-1.444397,0.03729248
0.5114746,-1.7415161,-0.3086548
0.5649414,-0.92681885,-0.17559814
0.063964844,-0.95635986,-0.03326416
-0.037597656,-0.87872314,0.027526855
0.09057617,-0.49224854,0.16668701
-0.11816406,-0.80352783,0.18695068
0.36254883,-1.2512817,0.14984131
-0.23925781,-1.6323853,-0.41461182
0.20361328,-0.9319458,-0.15631104
0.14990234,-1.0125122,-0.14849854
-0.1538086,-0.64678955,-0.06695557
-0.005126953,-0.68927,0.03289795
-0.076416016,-0.71343994,-0.022033691
-0.18823242,-1.3240356,0.093444824
0.24121094,-1.30719,-0.20123291
0.6201172,-1.0029907,-0.003967285
0.12207031,-1.0864868,-0.13018799
-0.028076172,-0.99005127,0.11102295
0.07373047,-0.39019775,0.0848999
-0.009765625,-0.8171997,0.23577881
0.27490234,-1.2625122,0.050231934
-0.19628906,-1.5581665,-0.25054932
0.06958008,-0.80792236,-0.24664307
0.34814453,-1.4036255,-0.12286377
-0.0107421875,-0.8049927,-0.06939697
0.099853516,-0.6890259,0.007019043
-0.13598633,-0.53863525,-0.046203613
-0.083740234,-1.3633423,-0.009338379
-0.0690918,-1.3777466,-0.047912598
0.6755371,-0.93634033,-0.03253174
-0.015625,-1.3599243,-0.069885254
0.3034668,-0.9512329,0.04119873
-0.23779297,-0.7271118,0.0692749
0.01171875,-0.56256104,0.19232178
0.17504883,-0.94122314,0.21746826
-0.33935547,-1.5073853,0.25531006
0.06713867,-1.1018677,-0.3086548
0.0769043,-1.0999146,-0.20709229
0.2619629,-1.0723267,-0.20806885
-0.1821289,-0.70025635,-0.010803223
0.011230469,-0.57281494,0.02532959
0.0126953125,-0.76519775,0.02557373
-0.21899414,-1.2903442,0.07513428
0.37280273,-1.2046509,-0.109436035
0.31469727,-1.1279907,-0.034973145
0.2763672,-0.94122314,-0.013244629
-0.13745117,-0.9133911,0.11468506
0.10913086,-0.54107666,0.13128662
0.053222656,-0.7305298,0.22625732
0.30151367,-1.3945923,0.23553467
-0.15356445,-1.2097778,-0.22442627
0.28735352,-1.1655884,-0.3045044
0.09863281,-1.2090454,-0.069885254
-0.056152344,-0.80596924,-0.030090332
0.04345703,-0.67852783,0.051452637
-0.13623047,-0.59552,-0.008605957
-0.21582031,-1.4041138,-0.0064086914
0.18554688,-1.4944458,-0.20635986
0.43066406,-0.78009033,-0.08404541
0.15527344,-1.2991333,-0.031311035
0.13208008,-0.8882446,0.093444824
-0.033203125,-0.5215454,0.11126709
-0.07446289,-0.628479,0.17108154
0.21289062,-1.2180786,0.030700684
-0.5720215,-1.4155884,-0.06060791
0.068847656,-0.89019775,-0.30889893
0.19604492,-1.3364868,-0.05328369
0.02734375,-0.95391846,-0.06744385
0.03173828,-0.723938,-0.034484863
-0.107177734,-0.6253052,0.030944824
-0.04663086,-0.9663696,0.04852295
-0.1274414,-1.4031372,0.12786865
0.40771484,-0.9338989,0.027282715
-0.084472656,-1.708313,-0.17095947
0.25195312,-0.8928833,0.0289917
-0.051513672,-0.7905884,0.11102295
-0.030273438,-0.68707275,0.12908936
0.018798828,-0.85528564,0.18817139
0.24243164,-1.4060669,0.22015381
-0.053222656,-1.2764282,-0.046203613
0.12451172,-0.81988525,-0.19976807
0.27368164,-1.4939575,-0.030090332
-0.18920898,-0.7659302,-0.10479736
0.122802734,-0.835022,-0.032287598
-0.07299805,-0.5874634,0.04534912
0.06762695,-1.1323853,-6.1035156e-05
0.056396484,-1.3762817,-0.051086426
0.42749023,-0.78619385,0.007751465
0.095214844,-1.6817017,-0.1416626
0.24560547,-0.90093994,0.054382324
0.03955078,-0.7581177,0.15716553
-0.01171875,-0.6477661,0.13446045
0.032226562,-0.81988525,0.2531128
0.39892578,-1.4224243,0.25750732
0.051757812,-1.2224731,-0.055725098
-0.0061035156,-0.8921509,-0.2888794
0.1928711,-1.3919067,0.007507324
-0.28588867,-0.60821533,-0.05718994
0.07763672,-0.74224854,0.0079956055
0.052001953,-0.92388916,0.035583496
-0.02319336,-1.1448364,-0.013000488
0.06518555,-1.380188,-0.02520752
0.3317871,-0.87628174,-0.019348145
0.0949707,-1.194397,-0.117004395
0.21142578,-0.9026489,0.024841309
0.022460938,-0.722229,0.04876709
0.13305664,-0.78692627,0.121520996
0.06665039,-1.0127563,0.16522217
-0.009033203,-1.2700806,0.26800537
-0.06225586,-1.1992798,-0.21051025
0.1081543,-0.9771118,-0.2210083
0.16088867,-1.1712036,0.007507324
-0.1616211,-0.63726807,-0.117248535
0.04736328,-0.8596802,-0.0635376
-0.07348633,-0.96759033,0.0021362305
-0.083740234,-1.1802368,0.016784668
0.24072266,-1.5496216,-0.16998291
0.4819336,-0.60723877,-0.011291504
0.17553711,-1.3013306,-0.0869751
0.19995117,-0.9500122,0.06951904
0.11230469,-0.73223877,0.08758545
0.036132812,-0.6343384,0.10272217
0.06567383,-0.97442627,0.13397217
-0.08178711,-1.4402466,0.22137451
0.0021972656,-1.0286255,-0.22735596
0.1159668,-1.0789185,-0.2210083
0.25830078,-1.1038208,-0.17315674
-0.09765625,-0.7202759,-0.14337158
0.04345703,-0.6350708,-0.039611816
-0.053955078,-0.7229614,-0.04058838
-0.0715332,-1.4197388,0.007507324
0.12695312,-1.458313,-0.24053955
0.6147461,-0.61309814,-0.1375122
0.13476562,-1.260315,-0.059143066
0.18261719,-0.9182739,0.019714355
0.10595703,-0.65704346,0.05218506
0.021972656,-0.5877075,0.1515503
0.26757812,-1.0515747,0.03753662
-0.17285156,-1.5154419,0.10491943
0.01977539,-0.894104,-0.054260254
0.15209961,-0.79400635,-0.36236572
-0.056884766,-1.3860474,-0.062805176
-0.09790039,-0.7317505,-0.16973877
0.07861328,-0.68951416,-0.04473877
0.02709961,-0.70147705,-0.015930176
-0.14379883,-1.3286743,-0.10357666
-0.034423828,-1.5610962,-0.11065674
0.34643555,-0.70635986,-0.07330322
0.19189453,-1.3457642,-0.19488525
0.22851562,-0.8862915,-0.023498535
0.11303711,-0.6548462,0.085632324
0.107910156,-0.78912354,0.1005249
0.13256836,-0.9734497,0.09490967
0.020751953,-1.3162231,0.21136475
0.35473633,-1.1629028,-0.29180908
-0.03466797,-0.8909302,-0.27496338
0.20898438,-1.1965942,-0.19732666
-0.10253906,-0.74591064,-0.17071533
0.103759766,-0.7937622,-0.08087158
-0.020019531,-0.70147705,-0.012512207
0.044433594,-1.2341919,-0.06915283
-0.017089844,-1.3945923,-0.2871704
0.7026367,-0.90460205,0.089538574
0.20605469,-1.1306763,-0.06793213
0.19750977,-0.97320557,0.026794434
0.07348633,-0.6211548,0.062927246
0.057861328,-0.68878174,0.08660889
0.103515625,-1.0015259,0.101257324
-0.14111328,-1.4002075,0.13787842
0.4753418,-1.0005493,-0.035217285
0.296875,-0.82940674,-0.39605713
0.15161133,-1.1599731,-0.06817627
-0.030761719,-0.6296997,-0.1362915
0.05883789,-0.83184814,-0.06549072
-0.005859375,-0.9649048,-0.11871338
0.111083984,-1.1963501,-0.061340332
-0.072265625,-1.404602,-0.286438
0.66625977,-0.92681885,0.018981934
0.13647461,-1.2119751,-0.13092041
0.1665039,-0.911438,-0.042785645
0.16967773,-0.65216064,0.057800293
0.114990234,-0.7398071,0.074401855
0.15917969,-1.0288696,0.066589355
-0.17236328,-1.1721802,0.1942749
0.3046875,-1.3477173,-0.24176025
0.06689453,-0.9685669,-0.06695557
0.14770508,-0.96295166,-0.058898926
-0.024169922,-0.81988525,-0.04498291
0.03881836,-0.81988525,-0.03643799
-0.05908203,-0.97979736,0.018737793
-0.006591797,-1.0933228,0.0028686523
0.06762695,-1.2388306,-0.11578369
0.42333984,-0.7959595,-0.036193848
0.16259766,-1.2866821,-0.112854004
0.21386719,-0.9456177,0.05682373
0.04736328,-0.7473755,0.066833496
0.0146484375,-0.736145,0.09832764
0.083740234,-0.9741821,0.12322998
-0.15063477,-1.3098755,0.22161865
0.16748047,-1.2207642,-0.14752197
0.080566406,-0.8850708,-0.11383057
0.06665039,-1.1531372,0.01361084
-0.05517578,-0.7046509,-0.018859863
0.047851562,-0.88653564,0.027770996
-0.049804688,-0.9248657,0.0289917
-0.13330078,-1.1585083,0.049987793
0.047851562,-1.1248169,-0.05279541
0.56103516,-0.8870239,-0.027404785
-0.10253906,-1.3899536,-0.041809082
0.14453125,-0.7756958,0.14471436
0.072509766,-0.68341064,0.10809326
-0.08935547,-0.8311157,0.22747803
0.0690918,-1.0108032,0.14935303
-0.27661133,-1.37677,0.19647217
-0.0007324219,-1.08844,-0.11187744
0.14697266,-1.1360474,-0.26470947
-0.059326172,-1.1043091,0.047058105
-0.10595703,-0.60772705,-0.008850098
0.044921875,-0.80792236,0.0099487305
-0.16088867,-1.0740356,0.023376465
-0.053222656,-1.1953735,0.04901123
0.18798828,-1.366272,-0.07940674
0.4814453,-0.673645,-0.06304932
0.06298828,-1.2957153,-0.04888916
0.24804688,-0.96466064,0.17327881
0.1027832,-0.6548462,0.13153076
-0.10888672,-0.630188,0.2267456
0.06201172,-0.95635986,0.14471436
-0.28173828,-1.4768677,0.15740967
0.047607422,-1.1079712,-0.0960083
0.014404297,-0.9194946,-0.22418213
0.06225586,-1.3464966,-0.05596924
-0.08959961,-0.69732666,-0.08648682
0.037841797,-0.7996216,-0.031066895
-0.0234375,-0.7827759,-0.02154541
-0.19506836,-1.194397,-0.058654785
-0.041992188,-1.270813,0.011169434
0.3803711,-0.50860596,-0.124572754
0.30029297,-1.8562622,-0.065979004
0.2097168,-0.8682251,0.109558105
-0.072753906,-0.99591064,0.112976074
-0.05883789,-0.67755127,0.18109131
0.049316406,-0.86505127,0.17547607
0.009765625,-1.1797485,0.30169678
0.13476562,-1.3237915,-0.237854
-0.20166016,-1.0879517,-0.14459229
0.16333008,-1.0969849,-0.03765869
-0.16748047,-0.7251587,-0.06085205
0.015625,-0.7468872,0.00970459
-0.12524414,-0.9302368,0.0053100586
-0.19482422,-1.2610474,0.06121826
0.019042969,-1.3919067,-0.1506958
0.47338867,-0.82110596,0.029968262
-0.031982422,-1.2664185,-0.09283447
0.118652344,-0.85650635,0.15350342
0.092285156,-0.62213135,0.10443115
-0.12597656,-0.74835205,0.20648193
0.14697266,-0.95196533,0.16595459
