accelX,accelY,accelZ
-0.103515625,-0.99005127,-0.11407471
-0.15136719,-0.90753174,-0.050842285
-0.12768555,-0.9302368,-0.017150879
-0.17236328,-0.91119385,0.007019043
-0.2211914,-0.9368286,0.0018920898
-0.21606445,-1.079895,0.014343262
-0.23413086,-1.2598267,0.027526855
0.06518555,-1.0108032,-0.15655518
-0.021240234,-1.1121216,-0.061584473
-0.052978516,-0.96051025,-0.12506104
-0.055419922,-0.8809204,-0.08087158
-0.14990234,-0.8640747,-0.058654785
-0.16918945,-0.9446411,-0.012512207
-0.018798828,-0.9776001,-0.06329346
-0.31958008,-1.319397,-0.16534424
-0.07885742,-1.0847778,-0.14141846
0.2607422,-0.94732666,-0.3250122
-0.096191406,-0.95977783,-0.10040283
-0.1574707,-0.86016846,-0.12872314
-0.13330078,-0.87164307,-0.077941895
-0.13110352,-0.86138916,-0.031311035
-0.20727539,-1.1082153,-0.081848145
-0.2680664,-1.2542114,-0.024963379
0.020019531,-1.0903931,-0.04058838
0.044433594,-1.1550903,-0.077697754
-0.12915039,-0.98687744,-0.09674072
-0.049560547,-0.8814087,0.031188965
-0.11035156,-0.8657837,0.06707764
-0.15942383,-0.87335205,0.089782715
0.16381836,-1.0298462,-0.032287598
-0.09008789,-1.2373657,-0.20074463
-0.060791016,-0.87823486,-0.13800049
-0.048828125,-1.0029907,-0.2859497
-0.040283203,-0.9595337,-0.1741333
-0.1394043,-0.786438,-0.14630127
-0.13085938,-0.85650635,-0.11846924
-0.16845703,-0.9475708,-0.07891846
-0.2265625,-1.0979614,-0.15655518
-0.26245117,-1.2295532,-0.20977783
0.35864258,-0.8008423,-0.30548096
0.0024414062,-1.0518188,-0.0115356445
-0.020263672,-0.9487915,-0.13653564
-0.099365234,-0.829895,-0.040100098
-0.11767578,-0.82647705,-0.009094238
-0.17553711,-0.9793091,0.046081543
-0.30029297,-1.1431274,0.11590576
0.107421875,-1.2175903,-0.13995361
-0.046875,-0.9324341,-0.06109619
-0.0009765625,-1.06427,-0.06695557
-0.09741211,-0.8850708,-0.0010375977
-0.047851562,-0.79473877,-0.1182251
-0.15698242,-0.89508057,-0.008361816
-0.18334961,-1.0357056,-0.05328369
-0.092285156,-1.3093872,-0.101867676
-0.08642578,-1.1785278,-0.014709473
0.39257812,-0.9295044,-0.2366333
-0.1508789,-0.9939575,-0.05279541
0.017822266,-0.8657837,0.03289795
-0.20043945,-0.91485596,0.08099365
-0.16430664,-0.84381104,0.031921387
-0.08569336,-1.1055298,-0.034240723
-0.3100586,-1.3301392,0.028503418
0.013427734,-1.0217896,-0.00592041
0.14501953,-1.041565,-0.18585205
-0.07299805,-0.9338989,-0.06060791
-0.10839844,-0.8335571,-0.053771973
-0.16821289,-0.9365845,0.02166748
-0.15820312,-0.9014282,0.03265381
-0.21582031,-1.0842896,-0.021057129
-0.16186523,-1.2459106,-0.13677979
0.12133789,-1.2258911,-0.051818848
0.27368164,-0.9746704,-0.16925049
-0.15307617,-0.9644165,-0.06817627
-0.07348633,-0.95269775,0.020446777
-0.10107422,-0.8296509,0.02557373
-0.15161133,-0.8743286,0.046325684
-0.044189453,-1.0942993,-0.0022583008
-0.33642578,-1.2666626,-0.030334473
0.09106445,-1.006897,-0.11016846
0.110839844,-1.0584106,-0.14263916
-0.030273438,-0.9385376,-0.06011963
-0.1352539,-0.9155884,-0.09185791
-0.17822266,-0.8723755,-0.0134887695
-0.17602539,-0.87701416,-0.0017700195
-0.18188477,-1.0908813,-0.013000488
-0.21972656,-1.1931763,-0.07891846
0.18261719,-1.0811157,-0.07745361
0.0703125,-1.0967407,-0.02130127
-0.14404297,-0.9932251,0.06341553
-0.07470703,-0.90167236,0.07366943
-0.095458984,-0.90045166,0.07318115
-0.22436523,-0.91778564,0.09490967
0.0793457,-1.1099243,0.019226074
-0.025634766,-1.3103638,-0.12408447
-0.20507812,-0.73394775,-0.14874268
-0.056152344,-1.1860962,-0.06842041
-0.099609375,-0.89190674,-0.09234619
-0.12084961,-0.86065674,-0.120666504
-0.20117188,-0.85406494,-0.006164551
-0.13916016,-0.9072876,-0.038146973
-0.21948242,-1.1047974,0.005554199
-0.3059082,-1.1880493,0.020935059
0.044433594,-0.9578247,-0.10601807
-0.0793457,-1.1455688,-0.046447754
-0.1640625,-1.0154419,-0.0022583008
-0.11206055,-0.8855591,0.007019043
-0.08959961,-0.81915283,0.026306152
-0.22875977,-0.92755127,0.09320068
-0.087402344,-1.0545044,0.03656006
-0.025878906,-1.2949829,-0.04425049
-0.020751953,-0.9404907,-0.20904541
-0.22241211,-1.1443481,-0.08087158
-0.05493164,-0.8340454,-0.022521973
-0.04321289,-0.8328247,-0.09576416
-0.14160156,-0.89019775,-0.022766113
-0.17407227,-0.93756104,-0.02130127
-0.005126953,-1.2432251,-0.13848877
-0.16113281,-1.2356567,-0.07305908
0.37939453,-0.8870239,-0.1651001
-0.12719727,-1.0896606,0.0289917
-0.044433594,-0.9536743,0.081726074
-0.09741211,-0.7463989,0.028015137
-0.14794922,-0.87750244,0.09710693
0.06713867,-1.0808716,0.09490967
-0.17797852,-1.3914185,0.08294678
0.040527344,-0.925354,-0.16998291
-0.15332031,-1.1416626,0.03753662
-0.008300781,-0.82354736,-0.070129395
-0.12133789,-0.84454346,-0.043029785
-0.1538086,-0.82403564,-0.03302002
-0.07495117,-0.9065552,-0.047424316
-0.32202148,-1.2085571,0.014831543
-0.2121582,-1.0889282,-0.1585083
0.2763672,-1.0027466,-0.16046143
-0.01953125,-1.0894165,0.016784668
-0.087890625,-0.8501587,-0.09991455
-0.14111328,-0.8460083,0.08441162
-0.13916016,-0.80255127,0.06463623
-0.048095703,-1.0786743,0.034851074
-0.48779297,-1.3023071,0.14788818
0.41333008,-1.1116333,-0.43145752
-0.3251953,-1.0286255,0.09442139
0.015625,-0.9829712,-0.12042236
-0.06933594,-0.93341064,0.043640137
-0.14941406,-0.7542114,0.078063965
-0.15673828,-0.8206177,-0.013000488
-0.2746582,-1.2503052,0.18841553
-0.013183594,-1.2437134,-0.024230957
0.2692871,-0.9036255,-0.175354
-0.068603516,-1.0828247,0.06048584
-0.015625,-0.925354,0.066589355
-0.048583984,-0.8623657,0.04876709
-0.11401367,-0.8479614,0.11077881
-0.11035156,-1.0620728,0.11273193
-0.4831543,-1.1841431,0.2904663
0.009277344,-1.1558228,-0.13800049
0.22167969,-1.0523071,-0.10308838
-0.025390625,-0.95684814,-0.12042236
-0.15283203,-0.9956665,0.042419434
-0.12231445,-0.84698486,0.012145996
-0.18969727,-0.8098755,0.02947998
-0.32714844,-1.0835571,0.031677246
-0.23120117,-1.3135376,0.07611084
0.1628418,-0.9976196,-0.15679932
0.043701172,-1.2854614,0.008728027
-0.20898438,-0.8843384,-0.12213135
-0.12695312,-0.87042236,0.021911621
-0.0637207,-0.83306885,-0.0256958
-0.25756836,-0.97247314,0.038757324
-0.09863281,-1.0869751,0.007751465
-0.0061035156,-1.229065,-0.19146729
0.13989258,-1.0261841,-0.2288208
-0.012207031,-0.9619751,-0.26519775
-0.1159668,-0.81744385,-0.07183838
-0.0769043,-0.848938,-0.09429932
-0.17773438,-0.77130127,-0.06427002
-0.15820312,-1.0403442,-0.08746338
-0.15185547,-1.242981,-0.15460205
0.09008789,-1.071106,-0.09967041
0.13232422,-1.0925903,-0.061584473
-0.15722656,-0.9990845,0.038269043
-0.04248047,-0.89556885,0.015319824
-0.05419922,-0.7842407,0.0138549805
-0.17919922,-0.8987427,0.109558105
0.087890625,-1.0569458,0.09295654
-0.08325195,-1.2644653,0.020935059
0.16186523,-0.94195557,-0.29156494
-0.23950195,-1.0110474,0.009216309
0.028320312,-0.90338135,-0.10748291
-0.1821289,-0.9146118,-0.033996582
-0.203125,-0.8604126,0.03778076
-0.13110352,-0.8880005,-0.006164551
-0.23510742,-1.1890259,0.109802246
-0.36791992,-1.1433716,0.019714355
0.34936523,-0.95196533,-0.25250244
0.0041503906,-1.0588989,0.047302246
-0.099609375,-1.0261841,0.016296387
-0.12060547,-0.78497314,0.016052246
-0.09643555,-0.82281494,0.12884521
-0.21118164,-1.0100708,0.066345215
-0.30493164,-1.1870728,0.152771
-0.05859375,-1.2688599,-0.0960083
0.08691406,-0.94317627,-0.20196533
-0.021972656,-1.0056763,-0.12945557
-0.1262207,-0.8526001,-0.038635254
-0.11987305,-0.8743286,-0.05718994
-0.18286133,-0.8723755,0.013366699
-0.27563477,-0.99224854,0.013122559
-0.17114258,-1.1521606,-0.0960083
0.048339844,-1.1668091,0.015808105
-0.016601562,-1.2285767,-0.06451416
-0.32104492,-1.0357056,0.062683105
-0.056152344,-0.7959595,-0.0335083
-0.07446289,-0.8394165,0.05682373
-0.25048828,-0.925354,0.13421631
-0.05444336,-0.9939575,0.09637451
-0.5058594,-1.2295532,0.078308105
0.08984375,-1.0012817,-0.11968994
-0.099365234,-1.1956177,0.0038452148
0.063964844,-0.87335205,0.007507324
-0.107421875,-0.8640747,-0.024230957
-0.21801758,-0.9133911,0.053649902
-0.14404297,-0.8584595,-0.008850098
-0.26757812,-1.0967407,0.031677246
-0.23266602,-1.3457642,0.09246826
0.41601562,-0.8567505,-0.22052002
0.061279297,-1.156311,-0.04840088
-0.1796875,-0.9649048,-0.070129395
-0.14428711,-0.83917236,0.00579834
-0.12939453,-0.77301025,-0.0032348633
-0.27807617,-1.0518188,0.053894043
-0.3713379,-1.104065,0.19818115
0.033203125,-1.1294556,-0.085754395
0.17993164,-1.1160278,-0.05645752
-0.015625,-0.9788208,-0.1104126
-0.10986328,-0.91778564,0.031433105
-0.119140625,-0.82647705,-0.016174316
-0.17773438,-0.74664307,0.03704834
-0.31079102,-1.0686646,0.051696777
-0.22290039,-1.3870239,0.11029053
0.18139648,-0.9854126,-0.023742676
-0.16040039,-1.2178345,-0.14190674
-0.24926758,-1.050354,0.043884277
-0.10913086,-0.8875122,0.020690918
-0.15185547,-0.7659302,0.042663574
-0.24829102,-0.88653564,0.11395264
-0.09838867,-1.1182251,0.12445068
0.08129883,-1.21344,-0.044006348
0.24365234,-1.1289673,-0.24615479
-0.13720703,-1.0164185,-0.18634033
-0.08276367,-0.8604126,-0.033996582
-0.13256836,-0.80426025,-0.07305908
-0.18798828,-0.8064575,-0.01763916
-0.23706055,-1.0339966,-0.030578613
-0.21386719,-1.1643677,-0.07672119
0.007080078,-1.1333618,-0.015197754
-0.16088867,-1.1589966,-0.18902588
-0.24658203,-1.0923462,-0.022521973
-0.057373047,-0.8555298,0.029724121
-0.111083984,-0.8040161,0.042907715
-0.12402344,-0.89727783,0.08416748
-0.10668945,-1.0825806,0.101501465
-0.5036621,-1.1724243,0.19866943
-0.048095703,-1.1018677,-0.07867432
0.18334961,-1.092102,-0.1675415
-0.044677734,-1.0444946,-0.04815674
-0.08129883,-0.82037354,-0.06719971
-0.18457031,-0.88897705,-0.039611816
-0.18164062,-0.84454346,0.026794434
-0.37182617,-1.0359497,-0.07647705
-0.34106445,-1.333313,0.12298584
0.07836914,-0.9522095,-0.09918213
-0.1184082,-1.3486938,-0.05230713
-0.28125,-0.9475708,-0.0037231445
-0.16772461,-0.8682251,0.04925537
-0.14257812,-0.8088989,0.046813965
-0.29785156,-1.0076294,0.07196045
-0.171875,-0.99176025,0.15740967
0.095947266,-1.15802,-0.18682861
0.2536621,-0.9800415,-0.21612549
-0.026367188,-1.0408325,-0.14605713
-0.1772461,-0.7827759,-0.08770752
-0.119384766,-0.81134033,-0.07501221
-0.21826172,-0.8233032,0.024108887
-0.21923828,-0.9314575,-0.015686035
-0.26635742,-1.1538696,0.053649902
-0.09765625,-1.1599731,-0.04498291
0.25390625,-1.1426392,-0.175354
-0.19995117,-1.0813599,0.04949951
-0.0053710938,-0.87628174,0.046325684
-0.3371582,-1.161438,0.06121826
-0.43725586,-1.0862427,-0.08477783
0.2998047,-0.79034424,-0.069885254
0.035888672,-1.1218872,0.05316162
-0.22143555,-1.0337524,-0.014709473
-0.20458984,-0.82110596,-0.00079345703
-0.21533203,-0.8189087,0.06781006
-0.2607422,-1.0523071,0.061462402
-0.4272461,-1.109436,0.06732178
-0.067871094,-1.4319458,-0.03302002
0.19384766,-0.93536377,-0.18634033
-0.09863281,-0.95147705,-0.09136963
-0.12841797,-0.8526001,0.027282715
-0.1027832,-0.89190674,-0.030334473
-0.1640625,-0.8670044,0.011657715
-0.2175293,-0.97491455,0.05706787
-0.25024414,-1.1184692,0.07147217
-0.12792969,-1.248352,-0.011779785
0.23144531,-0.92315674,-0.15411377
-0.12719727,-1.1748657,0.074401855
-0.10473633,-0.9024048,-0.022766113
-0.100097656,-0.78375244,0.041931152
-0.18115234,-0.8413696,0.08294678
-0.10253906,-1.008606,0.11907959
-0.49975586,-1.2764282,0.0079956055
0.11767578,-1.0762329,-0.15338135
-0.10205078,-1.1026001,-0.08404541
-0.015380859,-0.9055786,-0.07623291
-0.091796875,-0.83551025,-0.07086182
-0.15820312,-0.847229,0.027038574
-0.123046875,-0.82403564,0.008728027
-0.3564453,-1.1890259,0.13201904
-0.17797852,-1.288147,-0.0010375977
0.3696289,-0.8062134,-0.21173096
-0.05126953,-1.1697388,0.10687256
-0.1496582,-0.90948486,-0.0015258789
-0.1315918,-0.8010864,0.06976318
-0.1262207,-0.8064575,0.0836792
-0.2734375,-1.072815,0.035827637
-0.48779297,-1.2459106,0.1930542
0.0041503906,-1.1963501,-0.16168213
0.06298828,-1.0908813,-0.18902588
-0.008544922,-0.9717407,-0.14801025
-0.111083984,-0.8279419,-0.06866455
-0.19165039,-0.819397,-0.066711426
-0.19555664,-0.8386841,-0.0032348633
-0.29907227,-1.0759888,-0.03692627
-0.29638672,-1.3508911,0.14031982
0.44677734,-0.95147705,-0.255188
0.038085938,-1.1550903,0.07269287
-0.15698242,-1.0044556,-0.025939941
-0.09716797,-0.79571533,0.042175293
-0.14038086,-0.7107544,0.051696777
-0.20239258,-0.93536377,0.036315918
-0.5163574,-1.2156372,0.35736084
0.13500977,-1.2925415,0.004333496
0.21118164,-1.0430298,-0.08477783
-0.021240234,-0.9849243,-0.03253174
-0.072753906,-0.8442993,0.06439209
-0.11645508,-0.8286743,0.02166748
-0.18896484,-0.8518677,0.051452637
-0.17919922,-1.0281372,0.00970459
-0.15332031,-1.3140259,-0.159729
0.3173828,-1.1455688,-0.055480957
0.033935547,-1.2861938,-0.0020141602
-0.2487793,-0.99053955,-0.04888916
-0.11230469,-0.78741455,-0.022766113
-0.08203125,-0.75128174,0.051452637
-0.27001953,-0.90582275,0.07513428
-0.083984375,-1.1494751,0.0026245117
0.11303711,-1.1692505,-0.0071411133
0.34814453,-1.2271118,-0.17706299
-0.17895508,-1.0464478,-0.06500244
-0.07324219,-0.76397705,-0.013977051
-0.12182617,-0.8123169,-0.024475098
-0.21484375,-0.8206177,0.034606934
-0.2680664,-1.0864868,0.027282715
-0.2758789,-1.2185669,-0.054504395
0.34350586,-1.1201782,0.06903076
-0.171875,-1.361145,-0.06109619
-0.33374023,-1.0618286,0.0836792
-0.11743164,-0.74346924,0.03387451
-0.16748047,-0.739563,0.089782715
-0.2368164,-1.0213013,0.13983154
-0.4321289,-1.1460571,0.23675537
0.078125,-1.2415161,-0.0134887695
0.13574219,-1.2266235,-0.2029419
-0.08544922,-1.1528931,-0.059631348
-0.119628906,-0.75567627,0.0045776367
-0.12573242,-0.76104736,-0.061340332
