accelX,accelY,accelZ
-0.69555664,-1.5471802,0.3883667
-0.21582031,-0.26739502,0.309021
-0.8088379,-0.96343994,0.3649292
-0.10205078,-0.88409424,0.37542725
-0.6328125,-0.5303345,0.31121826
-0.46728516,-0.9883423,0.31341553
-0.50878906,-1.4104614,0.36883545
-0.3161621,-1.0025024,0.14788818
-0.21655273,-0.67266846,0.0524292
0.056884766,-1.0562134,0.33953857
-0.50439453,-1.0911255,0.14520264
-0.32055664,-0.5125122,0.21502686
-0.2121582,-0.91485596,0.3859253
-0.27954102,-0.7822876,0.35443115
-0.3251953,-1.048645,0.46429443
-0.47094727,-1.2681274,0.2736206
-0.43017578,-1.020813,0.15618896
-0.40942383,-0.57403564,0.10443115
-0.45336914,-1.0161743,0.25238037
-0.203125,-0.8413696,0.29144287
-0.64819336,-0.74468994,0.17816162
-0.33251953,-0.8833618,0.37615967
-0.4038086,-0.9649048,0.37957764
-0.5500488,-0.986145,0.16912842
0.0034179688,-1.2703247,0.21966553
-0.30688477,-1.0176392,0.022399902
-0.50390625,-0.892395,0.105651855
-0.28637695,-0.6345825,0.15350342
-0.2097168,-0.94610596,0.31048584
-0.32250977,-0.87945557,0.38201904
-0.5270996,-0.75372314,0.37664795
-0.31103516,-1.1248169,0.31756592
-0.3798828,-1.3469849,0.20477295
-0.25268555,-0.48638916,0.07366943
-0.6455078,-1.3162231,0.291687
0.009033203,-0.642395,0.17181396
-0.5600586,-0.72979736,0.22039795
-0.36889648,-0.88238525,0.3673706
-0.25219727,-0.84576416,0.29803467
-0.53637695,-0.9456177,0.40618896
-0.38549805,-1.180481,0.21575928
-0.14648438,-0.8501587,0.16375732
-0.0847168,-1.0859985,0.15081787
-0.578125,-0.87506104,0.35028076
-0.24975586,-0.53741455,0.059509277
-0.31225586,-1.0698853,0.524353
-0.35839844,-0.7229614,0.27020264
-0.41064453,-0.8945923,0.42913818
-0.5004883,-1.2283325,0.3883667
-0.3474121,-1.0982056,0.06707764
-0.41748047,-0.60406494,0.14837646
-0.39868164,-1.2244263,0.31854248
-0.14086914,-0.6387329,0.2789917
-0.66186523,-0.755188,0.22283936
-0.3540039,-0.8657837,0.4310913
-0.30639648,-0.9072876,0.2982788
-0.70996094,-1.2859497,0.3336792
-0.34106445,-1.0093384,0.086120605
-0.009521484,-0.909729,0.22894287
-0.3642578,-1.1099243,0.23431396
-0.47827148,-0.5515747,0.1605835
-0.17382812,-0.8110962,0.3944702
-0.26293945,-0.9898071,0.38494873
-0.34155273,-0.80670166,0.2838745
-0.6230469,-1.1980591,0.35101318
-0.22338867,-1.3110962,0.1930542
-0.4453125,-0.5317993,0.11004639
-0.47827148,-0.98394775,0.16107178
-0.052734375,-0.89385986,0.32147217
-0.5144043,-0.5808716,0.20965576
-0.34375,-0.909729,0.33758545
-0.34521484,-1.034729,0.42694092
-0.60498047,-1.1262817,0.2826538
-0.31591797,-1.1172485,0.12640381
-0.053222656,-0.7542114,0.23553467
-0.15429688,-1.1223755,0.20379639
-0.3959961,-0.70806885,0.23162842
-0.23486328,-0.7769165,0.31854248
-0.2421875,-0.9783325,0.45672607
-0.22705078,-0.8093872,0.32562256
-0.6479492,-1.3440552,0.3295288
-0.35351562,-1.1360474,0.13275146
-0.49682617,-0.64971924,0.11395264
-0.26635742,-1.1231079,0.3961792
-0.26220703,-0.5474243,0.23651123
-0.77685547,-0.7752075,0.20452881
-0.32128906,-0.9932251,0.4208374
-0.41088867,-0.9273071,0.31536865
-0.65405273,-1.1265259,0.32537842
-0.26586914,-1.0962524,0.12908936
-0.06665039,-0.9026489,0.17572021
-0.40478516,-1.1831665,0.16815186
-0.5151367,-0.56427,0.12371826
-0.19384766,-0.8242798,0.28289795
-0.13330078,-0.94903564,0.31219482
-0.46484375,-0.7666626,0.29022217
-0.43432617,-1.2036743,0.3336792
-0.31713867,-1.4048462,0.15057373
-0.21191406,-0.5774536,0.12860107
-0.6052246,-0.9751587,0.121032715
-0.0625,-0.86602783,0.31732178
-0.44555664,-0.6741333,0.2682495
-0.47998047,-0.78570557,0.30389404
-0.23413086,-0.99005127,0.31097412
-0.58569336,-1.3982544,0.2892456
-0.1459961,-1.0071411,0.070495605
-0.2590332,-0.87701416,0.10809326
-0.45751953,-1.2761841,0.17718506
-0.40112305,-0.5117798,0.1251831
-0.21777344,-0.8123169,0.34783936
-0.16357422,-0.94732666,0.23675537
-0.48535156,-0.7727661,0.24676514
-0.59936523,-1.4031372,0.25701904
-0.28393555,-1.194397,0.10784912
-0.38745117,-0.6655884,0.05999756
-0.4645996,-1.15094,0.20819092
-0.03857422,-0.6729126,0.19012451
-0.5439453,-0.8726196,0.22845459
-0.31713867,-0.77008057,0.2682495
-0.35913086,-1.0025024,0.3624878
-0.37231445,-1.2317505,0.16204834
-0.25170898,-0.9446411,0.085876465
0.048583984,-1.038147,0.094177246
-0.61328125,-1.0317993,0.22039795
-0.27783203,-0.35406494,0.012878418
-0.2175293,-1.3418579,0.5404663
-0.19458008,-0.7258911,0.17791748
-0.47338867,-0.90826416,0.46551514
-0.39257812,-1.3533325,0.2531128
-0.3461914,-0.8267212,0.058288574
-0.5600586,-0.7107544,0.046081543
-0.1262207,-1.3272095,0.51727295
-0.1743164,-0.3875122,0.13494873
-0.73779297,-0.9002075,0.18670654
-0.30566406,-0.96881104,0.34857178
-0.68408203,-1.333313,0.13543701
-0.24902344,-1.0891724,0.2453003
-0.31567383,-0.7214966,-0.023498535
0.12597656,-1.194397,0.105895996
-0.73291016,-0.8718872,0.14666748
-0.14990234,-0.46954346,0.16204834
-0.24829102,-1.092102,0.3143921
-0.33935547,-0.7752075,0.18133545
-0.48706055,-1.3987427,0.010437012
-0.34179688,-0.9417114,0.036315918
-0.62719727,-0.7827759,0.109069824
-0.20166016,-0.8335571,0.19207764
-0.46044922,-0.7749634,0.13543701
-0.47314453,-0.819397,0.23699951
-0.3659668,-0.9199829,0.2579956
-0.6140137,-1.3425903,0.18963623
-0.21679688,-1.1675415,0.2736206
-0.16088867,-0.6602173,-0.024230957
0.09863281,-1.2036743,0.11395264
-0.67944336,-0.77667236,0.20672607
-0.16577148,-0.54473877,0.011657715
-0.18603516,-1.229065,0.42034912
-0.328125,-0.7283325,0.18377686
-0.3425293,-1.0623169,0.39471436
-0.44360352,-1.4448853,0.14154053
-0.33422852,-0.6358032,0.09564209
-0.29125977,-0.8257446,0.044128418
-0.15039062,-1.0357056,0.36688232
-0.4104004,-0.5132446,0.105407715
-0.5600586,-0.9414673,0.28167725
-0.23657227,-0.95806885,0.29266357
-0.4951172,-1.0718384,0.2736206
-0.21289062,-1.3045044,0.11517334
0.0078125,-0.7588501,0.10076904
-0.4802246,-1.0610962,0.20428467
-0.38085938,-0.6489868,0.2411499
-0.16430664,-0.7041626,0.25823975
-0.24291992,-1.1138306,0.42669678
-0.5046387,-0.7190552,0.13153076
-0.5661621,-1.428772,0.33343506
-0.13305664,-1.2835083,0.08782959
-0.37280273,-0.5569458,0.014099121
-0.42382812,-1.1167603,0.22406006
-0.001953125,-0.68218994,0.17254639
-0.79125977,-0.70318604,0.19793701
-0.31713867,-0.89141846,0.3007202
-0.34106445,-0.97052,0.34906006
-0.5432129,-1.2241821,0.18572998
-0.20385742,-0.9898071,0.027770996
0.029541016,-0.9783325,0.10491943
-0.7885742,-0.9812622,0.2423706
-0.16503906,-0.4915161,0.050720215
-0.15161133,-1.2302856,0.5492554
-0.45092773,-0.6902466,0.2736206
-0.41088867,-0.95635986,0.34490967
-0.54785156,-1.3162231,0.29559326
-0.38110352,-0.9212036,0.054626465
-0.31396484,-0.64141846,0.046081543
-0.29882812,-1.1897583,0.44744873
-0.22631836,-0.4656372,0.1383667
-0.8117676,-0.95269775,0.23480225
-0.3149414,-0.9248657,0.32928467
-0.36523438,-1.1326294,0.40130615
-0.46557617,-1.2051392,0.262146
0.030761719,-0.8242798,0.1005249
-0.13671875,-0.9763794,0.121276855
-0.64868164,-0.786438,0.2477417
-0.13842773,-0.62994385,0.20233154
-0.30444336,-1.0547485,0.38861084
-0.4104004,-0.66607666,0.21038818
-0.4873047,-1.1026001,0.5009155
-0.4658203,-1.1399536,0.13763428
-0.28125,-0.97735596,0.12176514
-0.40576172,-0.80914307,0.19622803
-0.30395508,-0.9553833,0.40789795
-0.2541504,-0.55133057,0.16131592
-0.6398926,-0.88897705,0.29144287
-0.24853516,-0.942688,0.2538452
-0.55615234,-1.2727661,0.276062
-0.30322266,-1.1763306,0.14691162
-0.06958008,-0.8569946,0.113708496
-0.23266602,-1.0056763,0.09588623
-0.5107422,-0.65631104,0.1942749
-0.1899414,-0.755188,0.20672607
-0.36035156,-0.9649048,0.3817749
-0.32055664,-0.86309814,0.20599365
-0.6105957,-1.2163696,0.36273193
-0.2590332,-1.2893677,0.12420654
-0.30810547,-0.61798096,0.057800293
-0.5053711,-1.0654907,0.18035889
-0.10131836,-0.7485962,0.26507568
-0.5283203,-0.6885376,0.24505615
-0.4206543,-0.8328247,0.31976318
-0.31274414,-0.9710083,0.3139038
-0.57055664,-1.2793579,0.22210693
-0.26831055,-1.0305786,0.04510498
-0.08642578,-0.99053955,0.121276855
-0.6669922,-1.1004028,0.27191162
-0.34179688,-0.38653564,0.0289917
-0.19262695,-0.9963989,0.4586792
-0.25195312,-0.7703247,0.31488037
-0.50146484,-0.8945923,0.3192749
-0.5654297,-1.2793579,0.2555542
-0.2746582,-1.0525513,0.101745605
-0.45825195,-0.6680298,0.10003662
-0.30737305,-1.236145,0.3139038
-0.17700195,-0.4956665,0.2267456
-0.71240234,-0.8255005,0.15472412
-0.38208008,-0.9277954,0.34417725
-0.50341797,-0.99591064,0.3944702
-0.4350586,-1.1826782,0.1359253
-0.0009765625,-0.9505005,0.09222412
-0.24316406,-1.1028442,0.16693115
-0.53808594,-0.7876587,0.2345581
-0.2084961,-0.56988525,0.08343506
-0.2849121,-1.0391235,0.5001831
-0.31982422,-0.9368286,0.26263428
-0.45654297,-0.9614868,0.3517456
-0.55200195,-1.3670044,0.08758545
-0.24438477,-0.7036743,0.17401123
-0.40527344,-1.0713501,0.15667725
-0.14086914,-0.75128174,0.30462646
-0.359375,-0.5432739,0.14178467
-0.53271484,-0.9312134,0.31170654
-0.2626953,-0.9248657,0.33343506
-0.532959,-1.2539673,0.22821045
-0.2397461,-1.2119751,0.15032959
-0.055908203,-0.8562622,0.097839355
-0.3984375,-1.1384888,0.20062256
-0.41796875,-0.58380127,0.23284912
-0.21533203,-0.6621704,0.24969482
-0.24511719,-0.9981079,0.46063232
-0.39526367,-0.86724854,0.24432373
-0.70654297,-1.3381958,0.2819214
-0.20385742,-1.203186,0.04949951
-0.39990234,-0.5420532,0.061706543
-0.45751953,-1.321106,0.27581787
-0.068359375,-0.6050415,0.23162842
-0.61157227,-0.6946411,0.14642334
-0.39770508,-0.911438,0.34466553
-0.53515625,-0.94976807,0.45599365
-0.4477539,-1.2669067,-0.010070801
0.021728516,-0.85821533,0.090026855
-0.19458008,-0.9783325,0.15106201
-0.6828613,-0.91070557,0.3414917
-0.16577148,-0.5664673,0.08807373
-0.33447266,-1.1228638,0.49920654
-0.36450195,-0.76568604,0.14886475
-0.4765625,-1.1707153,0.52923584
-0.501709,-1.204895,-0.032287598
-0.27661133,-0.83795166,0.124938965
-0.44848633,-0.94415283,0.1149292
-0.08569336,-0.8579712,0.4171753
-0.26708984,-0.49908447,0.10394287
-0.66552734,-0.8735962,0.3361206
-0.33740234,-0.93756104,0.33319092
-0.578125,-1.2610474,0.29608154
-0.2788086,-1.1699829,0.15789795
-0.006591797,-0.87677,0.11566162
-0.47192383,-1.1377563,0.24993896
-0.43554688,-0.51812744,0.19378662
-0.13476562,-0.67315674,0.25457764
-0.27197266,-1.0762329,0.5319214
-0.40161133,-0.77667236,0.24578857
-0.6647949,-1.5181274,0.28656006
-0.22167969,-0.8999634,0.2387085
-0.39819336,-0.75372314,0.08099365
-0.2055664,-1.050354,0.46185303
-0.3359375,-0.47784424,0.18060303
-0.62402344,-0.8323364,0.22015381
-0.40063477,-0.940979,0.38909912
-0.501709,-0.91851807,0.416687
-0.3269043,-1.373352,0.18255615
0.10961914,-0.80352783,0.1642456
-0.4645996,-1.0681763,0.20306396
-0.5234375,-0.614563,0.26800537
-0.20336914,-0.5679321,0.14569092
-0.3112793,-1.0640259,0.5426636
-0.36791992,-0.6992798,0.21502686
-0.5385742,-1.3567505,0.49798584
-0.24365234,-1.4404907,0.046081543
-0.26757812,-0.5606079,0.113220215
-0.42578125,-1.296936,0.27435303
-0.16699219,-0.5857544,0.22650146
-0.6086426,-0.5996704,0.23065186
-0.4140625,-0.8677368,0.3912964
-0.2932129,-0.85650635,0.4159546
-0.7092285,-1.7039185,0.32366943
-0.08935547,-0.92022705,0.1383667
-0.21948242,-0.8855591,0.05731201
-0.625,-0.8892212,0.2789917
-0.25512695,-0.472229,0.14056396
-0.33569336,-1.0894165,0.5385132
-0.29003906,-0.6397095,0.26019287
-0.42236328,-1.0745239,0.5470581
-0.5229492,-1.1489868,0.24041748
-0.2685547,-0.8164673,0.12005615
-0.39990234,-0.7647095,0.23626709
-0.1274414,-1.0481567,0.4118042
-0.27929688,-0.4319458,0.22039795
-0.85253906,-0.88604736,0.21307373
-0.1772461,-0.89508057,0.32806396
-0.55908203,-1.2698364,0.44989014
-0.34106445,-1.1370239,0.13763428
-0.099121094,-0.8545532,0.057800293
-0.2915039,-1.2717896,0.27459717
-0.6254883,-0.57232666,0.3234253
-0.16674805,-0.5376587,0.14984131
-0.19482422,-1.1489868,0.47088623
-0.4790039,-0.81378174,0.24945068
-0.69628906,-1.1419067,0.3060913
-0.15405273,-1.5269165,0.15814209
-0.19311523,-0.60235596,0.097351074
-0.64208984,-1.0244751,0.2321167
-0.018554688,-0.6826782,0.2423706
-0.5266113,-0.80474854,0.26239014
-0.3659668,-0.81915283,0.37908936
-0.28564453,-0.86798096,0.32513428
-0.77319336,-1.3743286,0.35491943
-0.20898438,-1.2615356,0.09954834
-0.07421875,-0.8530884,0.16815186
-0.73461914,-1.0615845,0.2987671
-0.3088379,-0.46343994,0.10467529
-0.22827148,-0.97540283,0.46551514
-0.26220703,-0.78863525,0.39031982
-0.43920898,-0.78131104,0.26800537
-0.7536621,-1.414856,0.36932373
-0.08691406,-1.253479,0.058044434
-0.47509766,-0.60040283,0.1005249
-0.26757812,-1.1907349,0.29681396
-0.075683594,-0.5339966,0.13812256
-0.8076172,-0.87384033,0.23651123
-0.40039062,-0.8357544,0.30023193
-0.36914062,-0.95684814,0.44451904
-0.5739746,-1.2131958,0.1749878
-0.07299805,-1.0215454,0.120788574
-0.17456055,-0.9187622,0.11395264
-0.5678711,-0.92559814,0.28851318
-0.3071289,-0.50494385,0.09100342
-0.27319336,-1.0352173,0.5101929
-0.2915039,-0.6970825,0.3258667
-0.5629883,-0.98760986,0.40716553
-0.5966797,-1.3440552,0.20697021
-0.28588867,-0.9385376,0.07244873
-0.42333984,-0.7085571,0.09710693
