accelX,accelY,accelZ
-0.07080078,-1.1240845,0.15423584
0.13208008,-1.3179321,-0.005432129
0.14526367,-0.7659302,-0.011291504
0.33496094,-0.644104,0.05682373
-0.05053711,-1.4605103,0.06097412
0.34887695,-0.8045044,0.0680542
0.01586914,-0.98321533,0.08074951
0.14477539,-0.9158325,0.08050537
0.0949707,-0.94317627,0.10687256
0.0024414062,-0.9536743,0.16400146
0.09057617,-1.039856,0.24871826
-0.22607422,-1.3196411,0.07659912
0.41088867,-1.1194458,-0.059143066
0.036132812,-0.65582275,-0.09429932
0.37158203,-1.2210083,0.051940918
0.04296875,-0.80474854,-0.032287598
0.06201172,-0.91778564,0.06732178
0.01977539,-0.9038696,0.12030029
0.10083008,-1.0039673,0.10662842
-0.040283203,-1.0462036,0.19598389
0.044921875,-1.4807739,0.30682373
0.31298828,-0.8262329,-0.3953247
0.17138672,-0.69488525,0.16204834
0.15551758,-1.1672974,0.10638428
0.110839844,-0.88116455,0.09539795
0.087646484,-0.80181885,0.13397217
0.053466797,-0.8657837,0.2296753
-0.052246094,-1.0857544,0.28656006
-0.25048828,-1.1277466,0.45672607
0.72509766,-1.2857056,-0.08843994
0.03564453,-0.6865845,-0.06793213
0.4724121,-1.1401978,0.15447998
-0.16308594,-0.86016846,-0.089660645
0.15429688,-0.9060669,0.13397217
-0.053955078,-0.91363525,0.10736084
0.17871094,-0.9890747,0.14202881
-0.1628418,-1.0752563,0.22088623
0.010986328,-1.204895,0.27923584
0.45996094,-0.98028564,-0.16973877
0.18554688,-0.913147,0.13153076
0.13891602,-1.0610962,0.13568115
0.08666992,-0.87677,0.089782715
0.110839844,-0.8772583,0.16937256
0.095214844,-0.8362427,0.199646
-0.07836914,-1.013977,0.21746826
-0.042236328,-1.2163696,0.38568115
0.5007324,-1.3052368,-0.07281494
0.20996094,-0.47027588,0.028015137
0.2446289,-1.2957153,-0.070617676
0.111816406,-0.82232666,0.010192871
0.16186523,-0.89556885,0.010437012
-0.025146484,-0.92193604,0.13519287
-0.016845703,-0.942688,0.124694824
0.051513672,-1.0967407,0.19329834
0.04663086,-1.2041626,0.2994995
0.09399414,-1.2503052,-0.17193604
0.6296387,-0.5935669,0.093444824
-0.4519043,-1.3433228,-0.00079345703
0.46020508,-0.84820557,0.19256592
0.022216797,-0.87872314,0.14129639
0.095458984,-0.87994385,0.24359131
0.029785156,-0.8526001,0.30169678
0.18286133,-1.1856079,0.30511475
-0.29614258,-1.3547974,0.13323975
0.5222168,-0.90948486,0.014831543
-0.1586914,-0.92315674,-0.10772705
0.43969727,-1.062561,0.20233154
0.09033203,-0.77349854,-0.1026001
0.0048828125,-0.95806885,0.16986084
-0.095458984,-0.8735962,0.11883545
0.13720703,-1.0266724,0.1005249
-0.04248047,-1.18219,0.43865967
0.052246094,-1.2766724,0.012145996
0.6230469,-0.7337036,0.045837402
-0.3544922,-1.206604,-0.07281494
0.36157227,-0.93634033,0.20037842
-0.006591797,-0.8418579,0.08123779
0.15136719,-0.8245239,0.17352295
-0.07006836,-1.0076294,0.24139404
0.17871094,-1.1184692,0.26776123
-0.034423828,-1.5593872,-0.061828613
0.31933594,-0.58795166,-0.02911377
0.049560547,-1.1565552,-0.07647705
0.2421875,-0.897522,0.015319824
0.06298828,-0.8814087,0.043395996
0.06591797,-0.88604736,0.12664795
0.041259766,-0.91973877,0.082214355
0.00390625,-1.1148071,0.14984131
0.20141602,-1.2974243,0.37615967
0.03466797,-1.0784302,-0.26861572
0.87231445,-0.6939087,0.21502686
-0.6105957,-1.2068481,-0.02960205
0.57666016,-0.86846924,0.25726318
-0.015625,-0.8123169,0.12884521
0.19824219,-0.8399048,0.18743896
-0.05419922,-0.96221924,0.2946167
0.15942383,-1.1734009,0.38861084
-0.0012207031,-1.3643188,-0.034973145
0.31689453,-0.78912354,0.04901123
0.06298828,-0.96295166,-0.11773682
0.30395508,-1.0234985,0.11444092
0.040039062,-0.84698486,-0.042053223
0.0390625,-0.8814087,0.15130615
0.016845703,-0.92193604,0.11517334
0.09887695,-1.0281372,0.1749878
-0.09082031,-1.2485962,0.3085327
0.25708008,-1.1948853,-0.09429932
0.595459,-0.692688,0.14129639
-0.27490234,-1.1533813,-0.070129395
0.28515625,-0.9378052,0.2543335
0.014160156,-0.7930298,0.12176514
0.17626953,-0.8740845,0.21917725
-0.09790039,-0.98760986,0.31219482
0.0847168,-1.1470337,0.4274292
0.17700195,-1.4107056,-0.070617676
0.25708008,-0.5679321,-0.094055176
0.21533203,-1.291565,0.12640381
-0.083740234,-0.7720337,-0.024475098
0.1027832,-0.954895,0.08782959
-0.020996094,-0.86431885,0.14691162
0.06958008,-1.0046997,0.15081787
-0.0068359375,-1.0418091,0.18743896
-0.099121094,-1.2671509,0.3451538
0.41723633,-0.81744385,-0.27545166
0.16918945,-1.0115356,0.21697998
0.024658203,-0.9915161,0.066833496
0.13452148,-0.8948364,0.12371826
0.088378906,-0.8867798,0.08343506
0.0847168,-0.84088135,0.12908936
0.00390625,-1.0737915,0.19720459
-0.083984375,-1.1755981,0.35662842
0.19091797,-1.2730103,-0.21734619
0.24047852,-0.6616821,-0.050354004
0.08520508,-0.9168091,0.0072631836
-0.01586914,-0.9024048,0.117370605
0.06665039,-1.0003052,0.08270264
0.017578125,-1.0686646,0.11175537
0.04711914,-1.1860962,0.20355225
-0.12866211,-1.2727661,0.06121826
0.58496094,-0.5232544,-0.046936035
-0.2915039,-1.399231,0.12347412
0.3034668,-0.94854736,0.1329956
0.049316406,-0.84454346,0.13470459
0.18774414,-0.8621216,0.18695068
0.04272461,-0.8796997,0.2255249
-0.045654297,-1.1394653,0.24700928
-0.19604492,-1.2078247,0.36810303
0.5041504,-1.1812134,-0.02130127
0.14648438,-0.50323486,-0.15509033
0.28564453,-1.4260864,0.0602417
0.10180664,-0.75323486,0.058288574
0.061035156,-0.9204712,0.046813965
-0.06762695,-0.86602783,0.17376709
0.030029297,-1.0171509,0.14178467
0.018798828,-1.0742798,0.13934326
0.0847168,-1.2507935,0.28778076
0.21020508,-1.0964966,-0.22662354
0.44433594,-0.6670532,0.13079834
-0.15698242,-1.2434692,0.030212402
0.33496094,-0.82769775,0.12957764
0.095703125,-0.9092407,0.14642334
0.107177734,-0.8543091,0.20526123
0.014404297,-0.92755127,0.28875732
0.1953125,-1.0715942,0.26116943
-0.32348633,-1.3843384,0.11834717
0.5852051,-0.9783325,0.062683105
-0.07128906,-0.8389282,-0.12945557
0.42260742,-1.0396118,0.15081787
-0.055419922,-0.8184204,0.012634277
0.09033203,-0.9434204,0.10638428
-0.005126953,-0.91973877,0.10662842
0.09667969,-0.95196533,0.16229248
-0.072753906,-1.0562134,0.20111084
0.17138672,-1.1760864,0.3283081
0.13696289,-1.24469,-0.15484619
0.5234375,-0.5913696,0.08538818
-0.33203125,-1.3162231,0.13006592
0.39111328,-0.8442993,0.15374756
-0.0126953125,-0.8640747,0.14202881
0.15307617,-0.89385986,0.19622803
0.103759766,-0.93951416,0.20965576
-0.061523438,-1.0950317,0.18670654
-0.035888672,-1.1133423,0.39886475
0.359375,-1.1445923,-0.03375244
0.115722656,-0.8858032,-0.047912598
0.14331055,-0.9717407,-0.07232666
0.15893555,-0.9273071,0.074401855
0.05493164,-0.89312744,0.03729248
-0.041259766,-0.9212036,0.13787842
-0.02368164,-0.94537354,0.18206787
0.06347656,-0.9998169,0.19671631
-0.047851562,-1.0630493,0.2140503
-0.021484375,-1.1084595,0.37835693
0.25,-1.0601196,-0.22589111
0.3881836,-0.7798462,0.23284912
-0.1694336,-1.2261353,0.20233154
0.19848633,-0.8635864,0.14178467
0.15039062,-0.8718872,0.21478271
-0.00390625,-0.9182739,0.19207764
0.05517578,-0.90167236,0.33685303
0.009033203,-1.0842896,0.2897339
-0.28759766,-1.196106,0.28338623
0.47973633,-1.1668091,0.18109131
0.017333984,-0.5508423,0.02947998
0.33251953,-1.2817993,0.034851074
0.047607422,-0.92633057,0.020690918
0.068847656,-0.91485596,0.03704834
-0.03564453,-0.925354,0.13275146
0.0871582,-0.9290161,0.09197998
-0.008056641,-1.0808716,0.12689209
0.038330078,-1.1777954,0.31048584
-0.015625,-1.248352,0.08685303
0.36938477,-0.67071533,-0.16290283
0.12426758,-1.140686,0.18304443
0.10449219,-0.9819946,0.046813965
0.118896484,-0.85943604,0.16571045
0.10083008,-0.9048462,0.15570068
0.068603516,-0.9470825,0.20306396
0.03515625,-1.0391235,0.22991943
0.05834961,-1.0349731,0.29730225
0.09838867,-1.2778931,-0.04815674
0.1237793,-0.8633423,0.09295654
0.10986328,-0.75250244,-0.17584229
0.091796875,-1.2857056,0.16741943
0.049316406,-0.85113525,-0.013000488
0.02758789,-1.0405884,0.06365967
0.016357422,-0.94781494,0.07342529
0.09033203,-0.99298096,0.101257324
-0.02319336,-0.9690552,0.109069824
0.01977539,-1.0842896,0.21795654
-0.09472656,-1.1382446,0.22454834
0.1340332,-0.9981079,-0.032287598
0.29736328,-0.63897705,0.12005615
-0.068115234,-1.4614868,0.22650146
0.19018555,-0.80255127,0.039733887
0.08569336,-0.9834595,0.15692139
-0.02368164,-0.9768677,0.13494873
0.17407227,-1.1450806,-0.0491333
0.0024414062,-0.99786377,0.028503418
0.06958008,-0.9434204,-0.019836426
-0.01928711,-0.9793091,0.04827881
-0.0056152344,-0.9915161,0.051452637
0.09863281,-1.0164185,0.13616943
0.0075683594,-1.1453247,0.1149292
0.026611328,-0.99786377,0.034118652
0.24584961,-0.772522,-0.008850098
0.2163086,-1.1116333,0.2423706
-0.014160156,-0.9998169,-0.016906738
0.28686523,-0.91656494,0.20770264
0.068847656,-0.92266846,0.04119873
0.16479492,-0.94732666,0.13201904
0.0715332,-0.986145,0.17059326
-0.024414062,-1.0357056,0.14837646
-0.04711914,-1.1416626,0.16375732
0.3486328,-1.1902466,0.06390381
-0.0107421875,-0.56378174,-0.012512207
0.22583008,-1.335022,-0.058654785
0.10839844,-0.87945557,0.1293335
-0.014160156,-0.85284424,0.042663574
-0.007080078,-0.95098877,0.17181396
0.05859375,-0.9841919,0.13372803
-0.040771484,-1.0247192,0.22991943
-0.033203125,-1.0081177,0.23016357
-0.03466797,-1.260315,0.25531006
0.21655273,-0.87677,0.0211792
0.27392578,-0.7144165,0.21063232
0.1015625,-1.3970337,0.22576904
0.06225586,-0.7908325,0.17132568
0.16088867,-0.92510986,0.21209717
0.07373047,-0.9067993,0.24017334
-0.016113281,-0.92755127,0.28851318
0.1706543,-1.0354614,0.25457764
-0.10595703,-1.3982544,0.19500732
0.37158203,-1.0518188,0.00579834
-0.015380859,-0.50665283,-0.05255127
0.23364258,-1.4324341,0.06048584
0.047851562,-0.8208618,0.059265137
0.08276367,-0.9702759,0.043151855
-0.0390625,-0.88116455,0.14251709
0.040771484,-1.0151978,0.11932373
0.028564453,-1.0510864,0.20477295
0.1730957,-1.3621216,0.20599365
0.041992188,-0.76934814,-0.10455322
0.42773438,-0.83673096,0.24920654
-0.075927734,-1.1680298,0.09173584
0.23291016,-0.76519775,0.11175537
0.10449219,-0.90753174,0.18792725
0.079589844,-0.8694458,0.23040771
0.06201172,-1.2070923,0.28533936
-0.14550781,-1.2180786,0.20062256
0.32470703,-0.9595337,0.06707764
0.09399414,-0.59576416,-0.09234619
0.26660156,-1.3630981,0.246521
0.013427734,-0.8374634,0.09979248
0.045410156,-0.9216919,0.16082764
-0.061767578,-0.8699341,0.14398193
0.1508789,-1.0593872,0.168396
-0.088378906,-1.0869751,0.26019287
0.09350586,-1.4263306,0.016052246
0.548584,-0.51812744,-0.013000488
-0.23291016,-1.37677,0.08099365
0.38134766,-0.7888794,0.18597412
0.092041016,-0.85040283,0.11126709
0.18676758,-0.8596802,0.18157959
-0.040283203,-0.94732666,0.27923584
0.19628906,-1.1575317,0.34100342
-0.16308594,-1.3213501,0.070739746
0.3840332,-1.008606,-0.0134887695
0.095214844,-0.81622314,-0.06719971
0.18774414,-1.0154419,0.1671753
0.024169922,-0.9060669,0.085632324
0.026123047,-0.91534424,0.14471436
-0.009765625,-0.89727783,0.18377686
0.010986328,-0.9758911,0.1864624
0.028808594,-1.03302,0.2819214
0.0063476562,-1.0979614,0.4244995
0.045654297,-1.2317505,-0.101623535
0.44482422,-0.7354126,0.22381592
-0.20263672,-1.1465454,0.059020996
0.3395996,-0.91119385,0.20721436
0.068603516,-0.8809204,0.16888428
0.17797852,-0.8467407,0.18035889
-0.024169922,-0.8887329,0.29486084
0.07421875,-1.1194458,0.2267456
-0.31689453,-1.2891235,0.2843628
0.4267578,-1.0606079,0.023132324
0.05834961,-0.7608032,-0.06866455
0.2692871,-1.269104,0.10858154
0.0053710938,-0.7473755,-0.014953613
0.0009765625,-0.98687744,0.121276855
0.05053711,-0.9927368,0.13616943
-0.012939453,-0.92144775,0.21307373
0.029052734,-1.0169067,0.1618042
0.08862305,-1.0808716,0.3283081
0.022216797,-1.3692017,0.12689209
0.2734375,-0.6428833,-0.022766113
0.1484375,-1.1795044,0.28338623
0.011962891,-0.8977661,0.16497803
0.17089844,-0.90460205,0.24261475
0.05859375,-0.86602783,0.23553467
0.12524414,-0.89849854,0.28460693
-0.0036621094,-0.99346924,0.34783936
0.111572266,-1.0015259,0.40838623
-0.16137695,-1.2214966,0.25091553
0.33520508,-1.21344,0.09881592
-0.017578125,-0.5652466,0.034851074
0.1159668,-1.2891235,0.085632324
0.171875,-0.94976807,0.101745605
-0.01171875,-0.90045166,0.1618042
-0.027832031,-0.8711548,0.14398193
0.026367188,-0.98028564,0.16156006
0.072021484,-1.0310669,0.17181396
0.013427734,-1.0747681,0.27557373
-0.024414062,-1.2791138,0.2230835
0.49804688,-0.7007446,-0.08013916
-0.11694336,-1.2080688,0.21282959
0.19067383,-0.90411377,0.12835693
0.12231445,-0.864563,0.22064209
0.12036133,-0.9234009,0.18988037
0.07836914,-0.85772705,0.26141357
-0.017822266,-0.9817505,0.35101318
0.10595703,-1.0664673,0.36273193
-0.111328125,-1.491272,0.020690918
0.33544922,-0.63165283,0.11077881
0.021240234,-0.9927368,-0.035705566
0.17553711,-0.98760986,0.18988037
0.07128906,-0.9138794,0.12445068
0.0024414062,-0.9338989,0.21697998
0.044677734,-0.9143677,0.14691162
0.03491211,-0.9951782,0.23822021
-0.015625,-1.0029907,0.1942749
0.056152344,-1.1038208,0.29681396
-0.07373047,-1.2634888,0.21722412
0.28686523,-0.7085571,-0.069885254
0.13671875,-0.9417114,0.21234131
-0.044921875,-1.0906372,0.12249756
0.24438477,-0.8284302,0.17889404
0.033203125,-0.9487915,0.16326904
0.052978516,-0.9324341,0.1642456
