accelX,accelY,accelZ
-0.26000977,-1.562561,-0.1038208
-0.06762695,-0.4102173,-0.15777588
-0.26098633,-0.831604,0.15594482
-0.22631836,-0.9873657,0.16351318
-0.19165039,-1.3711548,0.04095459
0.42114258,-1.0818481,-0.4414673
-0.3540039,-1.236145,-0.07501221
-0.012939453,-0.86383057,0.086364746
-0.17016602,-0.53131104,0.1239624
-0.07104492,-0.70025635,0.13568115
-0.37353516,-1.1939087,0.12738037
-0.44580078,-1.5877075,-0.012512207
0.18359375,-1.1135864,-0.08258057
0.1616211,-0.9968872,-0.08868408
-0.22558594,-0.6013794,-0.031311035
-0.072265625,-0.69000244,-0.065979004
-0.3815918,-0.83795166,0.08319092
-0.32592773,-1.3494263,0.14715576
0.13891602,-1.291565,-0.31036377
0.35839844,-1.0335083,-0.28155518
-0.4338379,-0.9692993,-0.1026001
0.08178711,-0.55426025,0.09442139
-0.0637207,-0.6851196,0.105163574
-0.22802734,-0.96099854,0.20355225
0.10888672,-1.2017212,0.18060303
-0.122802734,-1.4331665,-0.45269775
-0.45996094,-1.0281372,-0.22979736
-0.032470703,-1.2359009,0.058532715
-0.2878418,-0.3526001,-0.13165283
-0.053222656,-0.8311157,0.03778076
-0.29101562,-0.88238525,0.020446777
-0.4675293,-1.6150513,0.015319824
0.609375,-1.0371704,-0.47491455
-0.036376953,-1.2400513,-0.13165283
-0.095458984,-0.8274536,0.08294678
-0.14794922,-0.55255127,0.10076904
-0.07128906,-0.72540283,0.10614014
-0.20703125,-1.2158813,0.15179443
-0.49829102,-1.4907837,-0.024963379
0.16479492,-1.0838013,-0.020080566
0.01953125,-1.1118774,0.0004272461
-0.18115234,-0.6043091,-0.018371582
-0.106933594,-0.6878052,-0.06036377
-0.3725586,-0.7451782,0.06439209
-0.31274414,-1.4104614,0.23577881
0.32055664,-1.2561646,-0.3862915
0.28759766,-1.1599731,-0.28619385
-0.24975586,-0.9824829,-0.066223145
-0.016845703,-0.5083618,0.08856201
-0.092285156,-0.7085571,0.17816162
-0.025634766,-0.91119385,0.19866943
-0.057617188,-1.2195435,0.38104248
0.18286133,-1.2459106,-0.3665161
-0.25268555,-1.1731567,-0.15777588
-0.2541504,-0.9717407,0.04949951
-0.18725586,-0.35333252,-0.14312744
-0.24267578,-0.8555298,0.11102295
-0.18188477,-1.0840454,0.09442139
-0.023925781,-1.3731079,-0.1885376
0.37231445,-1.1392212,-0.56427
-0.5554199,-1.1502075,-0.070129395
0.119384766,-0.69732666,0.066345215
-0.16723633,-0.6123657,0.14691162
-0.063964844,-0.81036377,0.05316162
-0.23925781,-1.3338013,0.05999756
-0.50439453,-1.4959106,-0.15802002
-0.27954102,-1.223938,-0.09039307
0.0012207031,-1.1079712,0.10858154
-0.099609375,-0.38946533,-0.108947754
-0.16625977,-0.7312622,0.06732178
-0.2631836,-0.87823486,0.044128418
-0.32910156,-1.5449829,0.21136475
0.5415039,-1.116272,-0.37017822
-0.19116211,-1.1348267,-0.06427002
0.0017089844,-0.7942505,0.077819824
-0.15136719,-0.5930786,0.15911865
-0.08569336,-0.7319946,0.21453857
-0.23486328,-1.1692505,0.2555542
-0.41210938,-1.37677,-0.061584473
0.16259766,-1.2612915,-0.14654541
0.07006836,-1.1309204,-0.04107666
-0.23999023,-0.5198364,-0.04058838
-0.07324219,-0.6704712,-0.05645752
-0.35424805,-0.8674927,0.14154053
-0.39013672,-1.4138794,0.14251709
0.3696289,-1.2217407,-0.44976807
-0.013183594,-1.1782837,-0.23345947
-0.1616211,-0.96466064,-0.07354736
-0.036865234,-0.47076416,0.10296631
-0.025634766,-0.65509033,0.12786865
-0.17333984,-1.0730591,0.18328857
-0.12207031,-1.347229,0.25482178
0.3515625,-1.102356,-0.37213135
-0.075927734,-1.1133423,-0.23956299
-0.2548828,-0.8501587,-0.012756348
-0.12915039,-0.5081177,-0.120910645
-0.2775879,-0.80181885,0.07879639
-0.45288086,-1.378479,0.26654053
0.14453125,-1.3079224,-0.21685791
0.21557617,-1.0928345,-0.47320557
-0.47143555,-1.0762329,0.008728027
0.020019531,-0.5623169,0.15740967
-0.068603516,-0.65631104,0.18133545
-0.05078125,-0.9048462,0.16864014
0.07324219,-1.1567993,0.27996826
-0.2866211,-1.4429321,-0.27545166
-0.36157227,-1.1370239,-0.11260986
-0.16064453,-1.1104126,0.07122803
-0.18286133,-0.4133911,-0.11236572
-0.13916016,-0.7764282,0.030700684
-0.25390625,-0.927063,0.11102295
-0.27612305,-1.5003052,-0.030090332
0.48706055,-1.1470337,-0.4204712
-0.22290039,-1.1741333,-0.089904785
-0.0026855469,-0.7542114,-0.0022583008
-0.15258789,-0.6514282,0.1329956
-0.025634766,-0.73321533,0.014343262
-0.2722168,-1.2542114,0.030700684
-0.826416,-1.5169067,-0.20123291
0.31811523,-1.2625122,-0.07183838
-0.0078125,-1.0930786,-0.11578369
-0.12548828,-0.5303345,-0.12432861
-0.15039062,-0.6062622,-0.046936035
-0.20727539,-0.8623657,0.061706543
-0.54663086,-1.6470337,0.089538574
0.43847656,-1.2407837,-0.45855713
0.087890625,-1.2102661,-0.1897583
-0.14672852,-0.8833618,0.0099487305
-0.095703125,-0.52056885,0.12713623
-0.013916016,-0.71051025,0.19207764
-0.23583984,-1.0740356,0.23284912
-0.06616211,-1.3267212,0.07562256
0.29077148,-1.144104,-0.16290283
0.024414062,-1.0535278,-0.10992432
-0.31811523,-0.6658325,0.0018920898
-0.1262207,-0.56378174,-0.047668457
-0.3149414,-0.8335571,0.17352295
-0.48413086,-1.3892212,0.31365967
0.2211914,-1.3042603,-0.20831299
0.2861328,-1.05719,-0.4368286
-0.36010742,-1.0791626,0.05731201
-0.041503906,-0.4800415,0.06829834
-0.06323242,-0.70977783,0.15032959
-0.18676758,-0.87872314,0.2694702
0.15283203,-1.2026978,0.36688232
0.020263672,-1.3738403,-0.28619385
-0.38134766,-1.085022,-0.13287354
0.0021972656,-1.0198364,0.027282715
-0.091796875,-0.3670044,-0.16461182
-0.28198242,-0.83966064,0.06561279
-0.33691406,-1.2644653,0.14935303
0.07836914,-1.4446411,-0.2312622
0.47875977,-1.0474243,-0.49346924
-0.33911133,-1.1182251,-0.10699463
0.123291016,-0.4915161,0.011413574
-0.10253906,-0.67852783,0.13323975
-0.068847656,-0.90753174,0.1251831
0.047851562,-1.3296509,0.24334717
-0.10205078,-1.3982544,-0.41900635
-0.32104492,-1.2341919,-0.1897583
-0.006591797,-1.0696411,0.035583496
-0.11987305,-0.34503174,-0.16705322
-0.16821289,-0.79107666,0.066833496
-0.24609375,-1.0066528,0.078552246
-0.2277832,-1.506897,-0.042297363
0.5168457,-1.1775513,-0.39727783
-0.40771484,-1.147522,-0.0569458
0.03930664,-0.6826782,0.124938965
-0.12792969,-0.58380127,0.13568115
-0.0703125,-0.8152466,0.16229248
-0.26098633,-1.2800903,-0.0049438477
-0.53149414,-1.6380005,-0.23736572
-0.18383789,-1.1929321,0.009460449
-0.037841797,-0.9536743,0.06781006
-0.12182617,-0.39996338,-0.10333252
-0.16308594,-0.7842407,0.070007324
-0.22216797,-1.005188,0.15692139
-0.1928711,-1.5071411,-0.19903564
0.52368164,-1.1499634,-0.47198486
-0.33813477,-1.1272583,-0.12579346
0.014892578,-0.7034302,0.035095215
-0.1472168,-0.6716919,0.07244873
-0.13793945,-0.83795166,0.08807373
-0.015136719,-1.267395,0.019958496
-0.5187988,-1.5737915,-0.2876587
-0.13574219,-1.3181763,-0.020080566
-0.041503906,-1.0466919,0.074401855
-0.11010742,-0.30743408,-0.04156494
-0.16333008,-0.75128174,0.038024902
-0.3034668,-1.0027466,0.08709717
-0.24951172,-1.5383911,-0.0029907227
0.62060547,-1.1143188,-0.45367432
-0.18579102,-1.1731567,-0.06793213
-0.096191406,-0.67559814,0.07635498
-0.08154297,-0.6404419,0.15301514
-0.111083984,-0.75323486,0.14910889
-0.39575195,-1.2600708,0.08929443
-0.63256836,-1.555481,-0.0725708
-0.0690918,-1.1965942,0.012145996
0.13720703,-1.175354,0.11053467
-0.20214844,-0.40386963,-0.04083252
-0.12231445,-0.677063,-0.049621582
-0.3449707,-0.8430786,0.06707764
-0.47094727,-1.6450806,0.21209717
0.41674805,-1.0635376,-0.54229736
0.01171875,-1.2647095,-0.16802979
-0.19018555,-0.9378052,-0.046691895
-0.07910156,-0.51690674,0.10614014
-0.033203125,-0.63482666,0.08294678
-0.31518555,-1.0703735,0.1762085
-0.37841797,-1.3582153,0.1618042
0.43847656,-1.1231079,-0.16802979
0.0073242188,-1.1260376,-0.14605713
-0.30566406,-0.68292236,-0.03741455
-0.12182617,-0.5339966,-0.08111572
-0.296875,-0.89385986,0.11175537
-0.41088867,-1.4302368,0.16790771
0.08300781,-1.1992798,-0.17999268
0.4482422,-1.1980591,-0.3423462
-0.42456055,-1.0044556,0.016540527
-0.019042969,-0.48394775,0.15570068
0.005126953,-0.6460571,0.12713623
-0.15063477,-0.9771118,0.24627686
0.0087890625,-1.27594,0.3102417
0.2319336,-1.1216431,-0.18389893
-0.041992188,-1.1484985,-0.09161377
-0.3449707,-0.75738525,0.026794434
-0.14453125,-0.50177,-0.10699463
-0.34204102,-0.8621216,0.117370605
-0.24121094,-1.4451294,0.14691162
0.3046875,-1.2053833,-0.4212036
0.2199707,-1.2090454,-0.22491455
-0.22241211,-0.89068604,-0.031799316
0.007080078,-0.46002197,0.06781006
-0.10058594,-0.7229614,0.14593506
-0.055419922,-0.9944458,0.2987671
-0.07421875,-1.2537231,0.23944092
0.41601562,-1.1502075,-0.41705322
-0.26904297,-1.1843872,-0.13800049
-0.23291016,-0.7119751,-0.0037231445
-0.06958008,-0.4541626,-0.12530518
-0.38427734,-0.9116821,0.06781006
-0.28759766,-1.3579712,0.07122803
0.22241211,-1.3040161,-0.35186768
0.18603516,-1.1646118,-0.18658447
-0.24023438,-1.0237427,-0.035217285
-0.03100586,-0.409729,0.04901123
-0.10131836,-0.62872314,0.16033936
-0.083984375,-1.0435181,0.27288818
-0.24047852,-1.2861938,0.16595459
0.48242188,-1.2666626,-0.1675415
-0.1628418,-1.0274048,-0.11798096
-0.3034668,-0.7542114,0.010925293
-0.14746094,-0.49176025,-0.08013916
-0.27685547,-0.8069458,0.042663574
-0.4880371,-1.6262817,0.28900146
0.5461426,-1.2200317,-0.42803955
0.078125,-1.175354,-0.1921997
-0.1303711,-0.85650635,-0.0015258789
-0.11035156,-0.53326416,0.16400146
-0.040771484,-0.6502075,0.2062378
-0.27441406,-1.0549927,0.291687
-0.12426758,-1.3638306,0.2411499
0.37646484,-1.0715942,-0.3032837
-0.045410156,-1.204895,-0.1519165
-0.39697266,-0.67022705,0.026062012
-0.0949707,-0.54937744,-0.08721924
-0.31445312,-0.8272095,0.04534912
-0.52563477,-1.5369263,0.14984131
0.30859375,-1.2461548,-0.5623169
0.021240234,-1.1377563,-0.3303833
-0.06567383,-0.9924927,-0.031066895
-0.05883789,-0.395813,0.054870605
-0.07348633,-0.644104,0.14691162
-0.1953125,-1.1004028,0.19085693
-0.3791504,-1.4011841,0.00018310547
0.45336914,-1.1057739,-0.070617676
-0.0625,-1.045227,-0.22784424
-0.25341797,-0.75006104,-0.054992676
-0.13134766,-0.5095825,-0.09161377
-0.3046875,-0.85821533,0.04901123
-0.49267578,-1.5667114,0.15570068
0.19042969,-1.2036743,-0.4907837
0.20874023,-1.2017212,-0.30010986
-0.25219727,-1.0090942,0.021911621
-0.14233398,-0.40533447,0.09320068
-0.037841797,-0.5996704,0.15423584
-0.19067383,-1.0545044,0.2658081
-0.23828125,-1.3171997,0.20965576
0.37963867,-1.1668091,-0.17340088
-0.005126953,-1.1221313,-0.014221191
-0.33203125,-0.6536255,0.038269043
-0.08081055,-0.5147095,-0.085998535
-0.26245117,-0.85235596,0.08123779
-0.5666504,-1.6099243,0.31121826
0.4399414,-1.1685181,-0.44732666
0.07128906,-1.2178345,-0.1729126
-0.17236328,-0.9151001,0.05316162
-0.04248047,-0.4524536,0.08319092
-0.068115234,-0.661438,0.19256592
-0.21679688,-1.0357056,0.29144287
-0.16699219,-1.2647095,0.2501831
0.47509766,-1.2036743,-0.2781372
-0.14379883,-1.1543579,-0.101867676
-0.22949219,-0.6567993,0.0067749023
-0.14257812,-0.48394775,-0.07672119
-0.24951172,-0.87994385,0.066101074
-0.5817871,-1.5696411,0.26287842
0.33520508,-1.1450806,-0.50860596
0.0017089844,-1.2996216,-0.18634033
-0.21264648,-0.9595337,-0.006164551
-0.022460938,-0.41241455,0.11907959
-0.015136719,-0.61505127,0.124694824
-0.27490234,-1.1946411,0.0993042
-0.4111328,-1.43219,-0.02154541
0.47583008,-1.18219,-0.10430908
-0.03125,-1.1941528,-0.1716919
-0.3305664,-0.60528564,0.026550293
-0.07836914,-0.4385376,-0.12554932
-0.30737305,-0.8987427,0.053894043
-0.5024414,-1.6619263,0.29388428
0.44604492,-1.1409302,-0.44415283
-0.114746094,-1.2359009,-0.15948486
-0.13012695,-0.9678345,0.036071777
-0.11303711,-0.47711182,0.15765381
-0.056640625,-0.59088135,0.19451904
-0.22436523,-1.1045532,0.2526245
-0.42114258,-1.4119263,-0.01373291
0.28076172,-1.2149048,-0.059143066
0.05126953,-1.08844,0.053649902
-0.24438477,-0.49761963,-0.054260254
-0.13623047,-0.6499634,-0.026428223
-0.32543945,-0.92437744,0.113464355
-0.3708496,-1.5256958,0.18841553
0.48608398,-1.0720825,-0.47247314
-0.080566406,-1.3220825,-0.1494751
-0.1394043,-0.84161377,0.024353027
-0.08642578,-0.45391846,0.11199951
-0.0390625,-0.60821533,0.11273193
-0.23803711,-1.2861938,0.1473999
-0.6040039,-1.4553833,-0.112854004
0.39990234,-1.3303833,0.028503418
0.012451172,-1.0491333,-0.043273926
-0.11035156,-0.39556885,-0.08477783
-0.1574707,-0.5899048,-6.1035156e-05
-0.22705078,-0.9209595,0.113220215
-0.3125,-1.6536255,0.06976318
0.55493164,-1.1270142,-0.58428955
-0.18139648,-1.3206177,-0.14312744
-0.16210938,-0.8435669,0.11053467
-0.119628906,-0.39727783,0.109802246
-0.08520508,-0.69122314,0.17327881
-0.21044922,-1.2947388,0.06561279
-0.7451172,-1.5586548,-0.33673096
-0.2565918,-1.5667114,-0.022521973
0.049804688,-1.0105591,0.19354248
-0.07373047,-0.15582275,-0.16558838
-0.14868164,-0.74664307,0.070007324
-0.5,-1.1384888,0.2531128
-0.26416016,-1.428772,-0.06890869
0.4362793,-1.2400513,-0.44293213
-0.18237305,-1.1997681,-0.02178955
-0.13305664,-0.47833252,0.07366943
0.025390625,-0.5874634,0.14105225
-0.08251953,-0.81329346,0.19989014
-0.028320312,-1.3945923,0.41448975
0.059326172,-1.3257446,-0.37457275
-0.47607422,-1.3552856,-0.06695557
-0.28442383,-0.7984009,0.08050537
-0.14550781,-0.22247314,-0.17388916
-0.23071289,-0.8303833,0.070739746
-0.41235352,-1.3999634,0.18743896
0.03100586,-1.2036743,-0.4649048
0.46923828,-1.3196411,-0.35821533
-0.24536133,-1.065979,-0.047180176
0.004638672,-0.31378174,0.07904053
-0.035888672,-0.5940552,0.13104248
-0.14648438,-1.0093384,0.2345581
-0.0703125,-1.4190063,0.21697998
0.5234375,-1.2678833,-0.26837158
