accelX,accelY,accelZ
0.2097168,-0.79766846,0.13763428
-0.25878906,-1.1226196,0.20648193
-0.02709961,-0.80841064,0.09442139
-0.064697266,-1.0076294,0.19329834
-0.20043945,-0.88360596,0.21502686
-0.09863281,-0.9260864,0.20916748
-0.09838867,-1.0869751,0.24969482
-0.3400879,-1.0562134,0.20550537
-0.13549805,-1.3904419,0.007019043
0.037841797,-0.7276001,-0.043518066
-0.15014648,-0.99102783,-0.10626221
-0.06958008,-1.0183716,0.113464355
-0.25219727,-0.815979,0.028015137
-0.28320312,-0.9956665,0.05633545
-0.18579102,-0.91363525,0.066101074
-0.31762695,-0.9627075,0.078552246
-0.25341797,-1.0181274,0.105407715
-0.34033203,-1.0979614,0.081726074
-0.060302734,-1.2556763,0.19207764
0.122802734,-0.6272583,-0.015930176
0.059326172,-1.1448364,0.17156982
-0.19262695,-0.92926025,0.13397217
0.09033203,-0.84454346,0.13128662
-0.13793945,-1.0540161,0.1954956
-0.14355469,-0.85406494,0.15350342
-0.10839844,-0.9741821,0.14422607
-0.059570312,-1.0823364,0.26556396
-0.34179688,-1.0852661,0.12908936
0.029541016,-1.5332642,0.08782959
-0.07446289,-0.5784302,-0.124572754
-0.07861328,-1.1663208,-0.03253174
0.013671875,-0.86065674,0.04925537
-0.4074707,-0.94195557,-0.023986816
-0.15356445,-0.98516846,0.034851074
-0.19848633,-0.95318604,0.02142334
-0.24584961,-0.9507446,0.062438965
-0.22705078,-1.0542603,0.085632324
-0.34448242,-1.0545044,0.034118652
0.012451172,-1.3049927,0.19134521
0.037353516,-0.6682739,-0.07550049
0.3125,-1.0552368,0.20843506
-0.3413086,-0.9976196,0.07147217
0.1430664,-0.81866455,0.101745605
-0.049316406,-1.0198364,0.2164917
-0.18701172,-0.8945923,0.16864014
-0.025634766,-0.94317627,0.1329956
-0.020263672,-1.1021118,0.25091553
-0.24145508,-1.1585083,0.09442139
0.067871094,-1.3311157,0.1552124
-0.10522461,-0.6404419,-0.050842285
-0.17114258,-0.92633057,-0.1326294
0.060791016,-1.1397095,0.14324951
-0.43579102,-0.80841064,-0.015686035
-0.11743164,-1.0073853,0.020202637
-0.1940918,-0.95758057,0.027770996
-0.19946289,-0.9368286,0.08660889
-0.21923828,-0.97320557,0.043395996
-0.29956055,-1.0027466,0.12371826
-0.3544922,-1.3775024,0.08880615
0.28198242,-0.817688,-0.018615723
0.036376953,-0.79571533,0.058288574
-0.103271484,-1.2351685,0.23236084
-0.056640625,-0.6987915,0.02557373
0.0859375,-1.0911255,0.21600342
-0.25634766,-0.8723755,0.18548584
-0.021484375,-0.9187622,0.17645264
0.014892578,-1.0759888,0.27874756
-0.14331055,-1.1380005,0.21600342
-0.013671875,-1.506897,0.055358887
-0.02319336,-0.59869385,-0.061340332
-0.21826172,-0.94415283,-0.18511963
0.09765625,-1.1502075,0.08123779
-0.4020996,-0.8765259,-0.036193848
-0.17456055,-0.9973755,-0.022521973
-0.11450195,-0.9360962,0.009460449
-0.24829102,-0.9624634,0.039733887
-0.21923828,-0.97735596,0.0072631836
-0.2133789,-1.0127563,0.11859131
-0.30004883,-1.0896606,0.012634277
-0.12817383,-1.2424927,0.22528076
0.115722656,-0.6409302,-0.0647583
0.0925293,-1.1419067,0.062683105
-0.23876953,-0.93292236,0.046081543
0.05029297,-0.8789673,0.046325684
-0.076660156,-0.99713135,0.1305542
-0.1484375,-0.85650635,0.109558105
-0.026855469,-0.9976196,0.121276855
0.0029296875,-1.0757446,0.18109131
-0.13745117,-1.1387329,0.17449951
-0.099365234,-1.3098755,-0.032043457
-0.10473633,-0.76397705,-0.08404541
-0.13549805,-0.94122314,-0.1975708
0.032958984,-1.041565,0.002380371
-0.3869629,-0.9451294,0.009460449
-0.17236328,-0.95196533,-0.014221191
-0.15039062,-0.96051025,-0.04473877
-0.20385742,-0.94537354,0.047546387
-0.3022461,-0.9685669,0.0048217773
-0.22387695,-1.0029907,0.05706787
-0.2800293,-1.1257935,0.03778076
-0.14501953,-1.2180786,0.09613037
0.016113281,-0.7173462,-0.12652588
0.30419922,-1.0515747,0.14154053
-0.3840332,-1.0479126,0.06561279
0.12792969,-0.85601807,0.12298584
-0.072021484,-1.0066528,0.15447998
-0.14477539,-0.88531494,0.13787842
-0.055908203,-0.96954346,0.19720459
-0.041503906,-1.0444946,0.1798706
-0.14819336,-0.96539307,0.2345581
-0.19213867,-1.1936646,0.08880615
0.034179688,-1.1065063,0.054382324
-0.2890625,-0.63409424,-0.08868408
-0.099853516,-1.0525513,-0.10748291
0.018066406,-0.9973755,0.06390381
-0.4946289,-0.9060669,-0.0076293945
-0.087402344,-1.0093384,-0.009338379
-0.20678711,-0.94317627,0.011413574
-0.21728516,-0.97491455,0.051940918
-0.24023438,-0.960022,0.013366699
-0.23852539,-1.0476685,0.07977295
-0.29638672,-1.279602,0.07757568
-0.038085938,-0.9360962,-0.015197754
0.17797852,-0.71099854,-0.04034424
-0.017822266,-1.2651978,0.13153076
-0.14404297,-0.87335205,0.019226074
0.07543945,-1.0027466,0.21063232
-0.2355957,-0.9102173,0.15374756
-0.045654297,-0.94415283,0.18011475
-0.13549805,-0.95025635,0.10491943
-0.13891602,-1.0635376,0.2333374
-0.1508789,-1.3731079,-0.0017700195
-0.044189453,-0.9055786,0.113708496
-0.3125,-0.80303955,-0.117248535
0.037109375,-0.99298096,-0.20562744
-0.01953125,-1.0715942,0.06536865
-0.5114746,-0.86065674,-0.09136963
0.028564453,-1.0518188,0.010925293
-0.26000977,-0.9585571,-0.018371582
-0.20361328,-0.9570923,0.025817871
-0.21240234,-0.95147705,0.032165527
-0.2824707,-1.0100708,0.06439209
-0.19165039,-1.4690552,0.121276855
-0.11254883,-0.77130127,-0.038146973
0.23510742,-0.7798462,-0.00592041
-0.08325195,-1.2398071,0.16888428
-0.08520508,-0.80914307,-0.00030517578
0.1315918,-1.1140747,0.23431396
-0.23144531,-0.92755127,0.16619873
0.030273438,-0.9175415,0.15838623
-0.04663086,-1.0195923,0.08319092
-0.111816406,-1.1248169,0.24139404
-0.13183594,-0.972229,0.038513184
-0.030517578,-1.2192993,0.050964355
-0.06958008,-0.89630127,0.06561279
-0.20214844,-0.7359009,-0.15533447
-0.03857422,-1.2781372,0.028259277
-0.2685547,-0.8699341,0.059020996
-0.18310547,-0.9133911,-0.05230713
-0.20483398,-1.0159302,-0.020324707
-0.18188477,-0.987854,0.013366699
-0.18457031,-0.9690552,0.030944824
-0.23535156,-0.97125244,-0.0064086914
-0.22509766,-1.0237427,0.08856201
-0.21704102,-1.0371704,0.06439209
-0.1430664,-1.1296997,0.0602417
-0.13134766,-0.98883057,-0.034240723
0.118652344,-0.8320923,-0.036193848
-0.01586914,-1.0542603,0.11468506
-0.10253906,-1.0029907,0.048034668
0.07006836,-0.95318604,0.12982178
-0.19140625,-0.92926025,0.09906006
-0.009033203,-0.9417114,0.13763428
-0.19702148,-0.97735596,0.13983154
-0.025634766,-1.0042114,0.14544678
-0.13500977,-1.0569458,0.11566162
-0.037109375,-1.1990356,0.039489746
-0.04711914,-0.9829712,0.035095215
-0.20898438,-0.8086548,-0.15386963
0.021728516,-1.0811157,-0.00030517578
-0.23535156,-0.9585571,0.043395996
-0.28759766,-0.90631104,-0.03741455
-0.032226562,-1.0335083,0.019714355
-0.27856445,-0.92633057,0.009216309
-0.19091797,-0.98931885,0.04144287
-0.23730469,-0.9710083,0.01361084
-0.23095703,-1.078186,0.014587402
-0.15209961,-1.171936,0.1408081
-0.13012695,-0.75128174,-0.046203613
0.20703125,-1.0342407,0.098083496
-0.22607422,-1.0176392,0.15618896
0.028564453,-0.9053345,0.090026855
-0.12768555,-0.98321533,0.11566162
-0.11743164,-0.90704346,0.13934326
-0.13647461,-0.94366455,0.15301514
-0.032714844,-1.0264282,0.1281128
-0.12036133,-1.0484009,0.2008667
-0.12011719,-1.2402954,0.09881592
-0.041015625,-1.0093384,0.085632324
-0.23071289,-0.7542114,-0.07110596
0.04638672,-0.97320557,-0.16265869
-0.20288086,-1.0674438,0.054626465
-0.36669922,-0.8809204,-0.004699707
-0.092041016,-1.0090942,-0.042785645
-0.18383789,-0.9763794,0.021911621
-0.17626953,-0.97735596,0.051940918
-0.2565918,-0.94537354,0.012145996
-0.21240234,-1.0222778,0.05218506
-0.24487305,-0.9522095,0.086120605
-0.2849121,-1.1487427,-0.015197754
0.047851562,-1.1541138,0.09124756
-0.0637207,-0.7090454,-0.08648682
0.040039062,-1.1123657,0.073913574
-0.18823242,-0.9680786,0.038513184
0.0769043,-0.91656494,0.06707764
-0.18920898,-0.97320557,0.11004639
-0.038085938,-0.94317627,0.13226318
-0.1586914,-0.9898071,0.09124756
0.022460938,-1.0335083,0.1593628
-0.22363281,-1.3220825,-0.012268066
-0.019042969,-0.89190674,0.0053100586
-0.17895508,-0.7214966,-0.16558838
-0.017822266,-1.1421509,-0.19781494
-0.16918945,-0.99786377,-0.010803223
-0.4404297,-0.88238525,-0.11016846
-0.048095703,-1.0274048,-0.051574707
-0.21923828,-0.9429321,-0.036193848
-0.20654297,-0.9619751,-0.018127441
-0.27075195,-0.972229,-0.057922363
-0.21801758,-0.9998169,0.02142334
-0.2565918,-1.2637329,-0.008850098
0.07885742,-0.9365845,-0.003967285
0.016845703,-0.8086548,-0.09991455
-0.024902344,-1.2529907,0.12200928
-0.14697266,-0.7805786,-0.058654785
0.1418457,-1.0874634,0.14569092
-0.20263672,-0.94781494,0.113220215
-0.03125,-0.9290161,0.07904053
-0.17602539,-0.9849243,0.11810303
-0.08154297,-1.0215454,0.15594482
-0.23144531,-0.99005127,0.12689209
-0.087402344,-1.3362427,0.05267334
-0.07446289,-0.8862915,0.021911621
-0.23022461,-0.77911377,-0.12872314
0.08959961,-1.1782837,-0.038879395
-0.20605469,-0.93414307,0.038269043
-0.32104492,-0.8711548,-0.040100098
0.008544922,-1.0547485,0.012634277
-0.3088379,-0.9595337,0.0004272461
-0.1796875,-0.96221924,0.010681152
-0.17993164,-0.97857666,0.0067749023
-0.30151367,-1.0901489,0.0036010742
-0.14697266,-1.2295532,0.101257324
-0.19042969,-0.8447876,-0.028381348
0.2607422,-0.8726196,0.07733154
-0.1015625,-1.1472778,0.086364746
-0.091796875,-0.8904419,0.0368042
-0.016601562,-1.024231,0.15228271
-0.20922852,-0.90338135,0.097351074
-0.045654297,-0.95806885,0.1564331
-0.21801758,-0.9512329,0.11859131
-0.07348633,-1.0969849,0.22650146
-0.21289062,-1.1116333,0.08758545
-0.011474609,-1.1746216,0.1408081
-0.18066406,-0.83428955,0.0018920898
-0.10986328,-0.7788696,-0.15704346
-0.041015625,-1.2190552,0.04949951
-0.37646484,-0.90093994,0.018981934
-0.22094727,-0.9487915,-0.037902832
-0.13452148,-0.975647,-0.03253174
-0.2680664,-1.0039673,-0.01373291
-0.22265625,-0.9741821,0.043640137
-0.1862793,-0.9307251,0.0045776367
-0.2788086,-0.9951782,0.038757324
-0.2788086,-1.0349731,0.018737793
-0.21533203,-1.4141235,0.081970215
0.19213867,-0.73809814,0.010437012
0.009277344,-0.8064575,0.08782959
-0.22363281,-1.2324829,0.24017334
-0.04345703,-0.7317505,0.061706543
-0.09692383,-1.06427,0.1671753
-0.18261719,-0.8596802,0.13079834
-0.0637207,-0.9710083,0.15618896
-0.049560547,-1.0349731,0.26190186
-0.2607422,-0.9290161,0.18499756
-0.13183594,-1.2561646,0.16497803
-0.018310547,-1.0803833,0.09906006
-0.19970703,-0.8423462,0.009460449
-0.06982422,-0.86065674,-0.12530518
-0.10473633,-1.1594849,0.06732178
-0.40576172,-0.81573486,-0.0178833
-0.15161133,-1.0171509,-0.010070801
-0.19091797,-0.9558716,0.02532959
-0.21459961,-0.9702759,0.07220459
-0.22485352,-0.9829712,0.022399902
-0.29370117,-1.0523071,0.01361084
0.010009766,-1.1748657,0.1329956
-0.21533203,-0.8821411,-0.019104004
0.30737305,-0.8753052,0.11151123
-0.23803711,-1.1106567,0.12542725
0.06591797,-0.82281494,0.09197998
-0.07006836,-0.9678345,0.16595459
-0.12133789,-0.956604,0.18597412
-0.052734375,-0.8965454,0.16644287
-0.037841797,-1.0420532,0.1515503
-0.09887695,-1.1211548,0.18182373
-0.1015625,-1.4397583,0.035827637
-0.017089844,-0.6489868,-0.049621582
-0.26757812,-0.91656494,-0.16973877
0.06933594,-1.1113892,0.06829834
-0.3996582,-0.87335205,0.03656006
-0.17333984,-0.94854736,-0.04107666
-0.13012695,-0.9963989,0.038269043
-0.16186523,-0.94976807,0.08099365
-0.21118164,-0.9710083,0.053894043
-0.25952148,-1.0005493,0.11956787
-0.21459961,-1.0916138,0.074645996
0.011962891,-1.2124634,0.078552246
0.114990234,-0.72906494,0.0016479492
0.024658203,-1.144104,0.098083496
-0.16992188,-0.92510986,0.01776123
0.057861328,-0.8748169,0.04071045
-0.040527344,-0.973938,0.097351074
-0.10839844,-0.9751587,0.09075928
-0.046875,-1.0291138,0.17230225
-0.16210938,-0.9780884,0.12884521
-0.13598633,-0.9800415,0.23284912
-0.26538086,-1.0945435,0.081970215
-0.05102539,-1.2559204,0.14959717
-0.18334961,-0.8086548,-0.008117676
-0.17651367,-0.89434814,-0.121398926
0.040527344,-1.1050415,-0.006652832
-0.3791504,-0.9529419,0.098083496
-0.28637695,-0.8804321,-0.027160645
-0.14892578,-0.9834595,-0.01373291
-0.23095703,-0.9651489,0.043640137
-0.20654297,-0.95098877,0.05657959
-0.22924805,-0.9849243,0.0016479492
-0.2434082,-1.0549927,0.12689209
-0.2849121,-1.1904907,0.028015137
0.084472656,-0.88116455,0.06463623
-0.01928711,-0.9060669,0.0045776367
0.040039062,-1.1953735,0.22723389
-0.20410156,-0.788147,0.012145996
0.076660156,-1.0484009,0.16473389
-0.17138672,-0.95098877,0.14715576
-0.099853516,-0.9307251,0.12689209
-0.13500977,-0.96588135,0.18499756
-0.09057617,-0.99786377,0.18719482
-0.19799805,-1.0230103,0.18792725
-0.15893555,-1.3840942,0.11126709
-0.07788086,-0.8135376,0.054382324
-0.3322754,-0.79522705,-0.16363525
0.041259766,-1.2175903,-0.05987549
-0.18774414,-0.91412354,0.0446167
-0.3515625,-0.8965454,0.0014038086
-0.14575195,-1.0025024,0.018737793
-0.2421875,-0.97491455,0.014343262
-0.20629883,-0.9758911,0.078063965
-0.25634766,-0.94610596,0.039489746
-0.26000977,-0.9898071,0.06097412
-0.27270508,-1.039856,0.039245605
-0.19189453,-1.185852,0.11956787
-0.1105957,-0.87384033,0.039001465
0.22021484,-0.91607666,0.06829834
-0.15917969,-1.147522,0.11029053
-0.061767578,-0.8933716,0.026306152
-0.03466797,-0.94976807,0.13079834
-0.103515625,-0.95880127,0.116882324
-0.079589844,-0.9331665,0.16253662
-0.15063477,-0.9373169,0.14715576
-0.068847656,-1.0374146,0.1954956
-0.1665039,-1.0737915,0.12860107
-0.09326172,-1.3496704,0.090270996
-0.0031738281,-0.7576294,0.10418701
