accelX,accelY,accelZ
0.13012695,-1.0474243,-0.0049438477
-0.375,-1.55719,0.08294678
0.23364258,-1.3640747,-0.17706299
0.026123047,-1.1096802,-0.31500244
-0.03881836,-0.74542236,0.15106201
-0.07373047,-0.55670166,-0.112854004
-0.111328125,-0.92144775,0.0036010742
-0.05444336,-1.1480103,0.06097412
-0.083984375,-1.4907837,0.03656006
0.5986328,-1.003479,-0.02935791
-0.30688477,-1.288147,0.020446777
0.2241211,-0.5911255,-0.06744385
-0.06347656,-0.6921997,0.12200928
-0.064941406,-0.82476807,0.14251709
0.017578125,-1.0840454,-0.024719238
-0.38476562,-1.4829712,0.030700684
0.27490234,-1.3130493,-0.28497314
0.08227539,-1.0691528,-0.38897705
0.14697266,-0.91192627,0.04901123
-0.19335938,-0.42095947,-0.09063721
0.051513672,-0.77471924,0.062438965
0.0014648438,-1.0186157,-0.010314941
-0.1586914,-1.3272095,0.23406982
0.11767578,-1.2190552,-0.30645752
0.23095703,-1.2241821,-0.059143066
0.1315918,-0.79473877,-0.035461426
-0.111083984,-0.5183716,0.077819824
0.06665039,-0.8303833,0.19158936
-0.10131836,-0.9915161,0.109313965
-0.009277344,-1.1773071,0.32806396
-0.060546875,-1.3135376,-0.10675049
0.17651367,-0.99102783,-0.24517822
0.25634766,-1.00177,-0.0076293945
-0.1887207,-0.6067505,0.050720215
0.1315918,-0.6868286,-0.08526611
-0.07397461,-0.94415283,0.06976318
-0.15014648,-1.2793579,0.10101318
0.119384766,-1.3596802,-0.25152588
0.8894043,-1.0032349,-0.022521973
-0.1550293,-0.99542236,-0.113586426
-0.07885742,-0.46002197,0.04144287
0.16992188,-0.7554321,0.15716553
-0.13208008,-0.9060669,0.11541748
-0.032226562,-1.2210083,0.12884521
-0.018554688,-1.4810181,0.06390381
0.11206055,-1.0918579,-0.27398682
0.140625,-1.2058716,-0.19073486
-0.1027832,-0.6309204,0.11541748
-0.012207031,-0.58477783,-0.08795166
-0.07788086,-0.8904419,0.028503418
0.027832031,-1.1807251,0.019470215
-0.0068359375,-1.5542603,0.028259277
0.6711426,-1.0032349,0.015808105
-0.2043457,-1.2437134,0.10394287
0.05883789,-0.55352783,0.05340576
-0.057128906,-0.6177368,0.08734131
-0.021972656,-0.88360596,0.15765381
-0.09375,-1.0405884,0.04901123
-0.40478516,-1.479065,0.11029053
0.12524414,-1.2810669,-0.175354
0.17260742,-1.2466431,-0.2468872
0.035888672,-0.7319946,0.15447998
-0.07861328,-0.53692627,-0.07574463
-0.030273438,-0.85528564,0.023132324
-0.04296875,-1.0256958,0.10296631
-0.12426758,-1.2905884,0.21185303
0.23046875,-1.3972778,-0.29058838
0.1472168,-1.079895,0.011657715
0.15332031,-0.8389282,-0.022521973
-0.16040039,-0.57818604,0.06365967
0.07543945,-0.87164307,0.20550537
-0.15161133,-0.9414673,0.13739014
-0.07397461,-1.225647,0.36688232
0.24511719,-1.4678345,-0.10406494
-0.0036621094,-1.0371704,-0.4463501
0.34472656,-0.93463135,0.081970215
-0.16479492,-0.5198364,0.015075684
0.045410156,-0.71051025,-0.012268066
-0.040039062,-0.9951782,0.08319092
-0.16137695,-1.2058716,0.17425537
0.18603516,-1.4631958,-0.23516846
0.60302734,-1.0300903,-0.13580322
-0.0029296875,-0.91534424,-0.101623535
-0.079833984,-0.6079712,0.06903076
0.020996094,-0.74884033,0.14447021
-0.03125,-0.91485596,0.18377686
0.029541016,-1.1062622,0.15203857
-0.1862793,-1.53302,0.054382324
0.16577148,-0.88165283,-0.18048096
0.24316406,-1.2368774,-0.06817627
-0.15698242,-0.59503174,0.09124756
-0.03173828,-0.63946533,-0.023254395
-0.15039062,-0.8538208,0.03338623
-0.118652344,-1.2229614,0.042419434
0.07763672,-1.5232544,-0.18292236
0.71850586,-0.95928955,0.029724121
-0.2993164,-1.0999146,-0.09893799
-0.0703125,-0.4500122,0.042663574
0.14331055,-0.6878052,0.1293335
-0.06347656,-0.94854736,0.16766357
0.021728516,-1.1616821,0.15740967
0.018066406,-1.3899536,0.00018310547
0.15136719,-0.9776001,-0.39215088
0.057373047,-1.2366333,-0.097473145
-0.03173828,-0.54644775,-0.014709473
0.011474609,-0.6445923,-0.06011963
-0.09448242,-0.8574829,0.03314209
-0.020507812,-1.2122192,0.03704834
0.11816406,-1.4714966,-0.15435791
0.40625,-0.9126587,-0.12921143
0.22631836,-1.2554321,0.13104248
0.049072266,-0.42730713,0.09637451
0.061035156,-0.64508057,0.101501465
-0.053466797,-0.9248657,0.34979248
0.21240234,-1.1238403,0.27825928
0.26342773,-1.4849243,-0.028137207
-0.12670898,-0.9751587,-0.2276001
0.2854004,-1.3267212,-0.015930176
-0.07495117,-0.6109009,-0.09674072
0.03100586,-0.5852661,-0.011779785
0.036621094,-0.75738525,0.06829834
-0.048828125,-1.2473755,0.038269043
-0.027832031,-1.5361938,-0.13677979
0.77685547,-0.84747314,-0.097473145
0.055419922,-1.3130493,-0.008850098
0.08203125,-0.4944458,0.07684326
0.004638672,-0.6087036,0.0040893555
0.067871094,-0.8858032,0.22088623
0.26293945,-1.0256958,0.07611084
0.34155273,-1.572815,-0.0803833
-0.62158203,-1.1296997,-0.3040161
0.42919922,-1.5117798,-0.039855957
0.23291016,-0.5857544,-0.051330566
0.0075683594,-0.6123657,-0.018859863
0.16137695,-0.6865845,0.058044434
-0.07373047,-1.1682739,0.0004272461
0.2097168,-1.5618286,-0.018859863
0.5317383,-0.8713989,-0.06500244
0.34399414,-1.0845337,0.15252686
0.056152344,-0.59503174,0.04486084
0.16796875,-0.65753174,0.07489014
0.21362305,-0.8171997,0.21063232
0.1940918,-1.0310669,-0.03765869
0.22192383,-1.3765259,-0.14630127
0.04345703,-0.8755493,-0.5137329
0.5168457,-1.5454712,-0.10333252
0.10864258,-0.68536377,-0.09088135
0.1340332,-0.6814575,0.04925537
0.30566406,-0.73809814,0.081970215
0.05444336,-0.99005127,-0.04840088
0.3828125,-1.2402954,0.12567139
0.40307617,-1.2276001,-0.31549072
-0.118896484,-1.1223755,-0.12921143
0.31982422,-0.6902466,-0.0037231445
-0.015625,-0.585022,0.06414795
0.15844727,-0.81085205,0.11126709
0.14648438,-1.041565,-0.04107666
-0.03540039,-1.2876587,0.21746826
0.5683594,-1.1741333,-0.17364502
0.15429688,-1.3823853,-0.19415283
0.03515625,-0.8596802,0.00091552734
0.099365234,-0.43292236,-0.028625488
0.026611328,-0.8064575,0.00579834
0.036865234,-1.078186,0.038269043
0.033203125,-1.1773071,0.15985107
0.21411133,-1.3132935,-0.12652588
0.06616211,-1.2991333,-0.03692627
0.25952148,-0.74346924,0.026306152
-0.10498047,-0.5523071,0.05267334
0.01953125,-0.8904419,0.16644287
0.025146484,-0.91851807,0.124938965
-0.08154297,-1.2647095,0.31463623
0.40112305,-1.3965454,-0.020080566
-0.017822266,-1.0742798,-0.3562622
0.09716797,-1.0317993,0.028747559
0.029541016,-0.50177,-0.011291504
0.051513672,-0.7149048,-0.04034424
0.026855469,-0.9024048,0.026794434
-0.24829102,-1.2876587,0.16473389
0.36621094,-1.6629028,0.005065918
0.19873047,-0.8074341,-0.16363525
0.05859375,-0.96954346,-0.06573486
0.11816406,-0.53326416,0.101257324
0.12451172,-0.7359009,0.00970459
-0.040039062,-0.95977783,0.14056396
0.15625,-1.1973267,0.20721436
0.2668457,-1.5100708,-0.121398926
-0.2578125,-0.8640747,-0.22467041
0.40283203,-1.2852173,-0.04888916
-0.040039062,-0.5906372,-0.11114502
0.06591797,-0.628479,-0.0022583008
-0.06958008,-0.82940674,0.07952881
-0.053955078,-1.1887817,0.047302246
-0.06201172,-1.5733032,-0.043518066
0.66015625,-0.70440674,-0.13482666
-0.29003906,-1.229065,-0.14068604
-0.045654297,-0.57403564,0.07659912
0.19189453,-0.6514282,0.054138184
-0.15136719,-1.0200806,0.1798706
0.17626953,-1.1721802,0.17645264
0.06616211,-1.4172974,-0.043518066
-0.22167969,-0.9890747,-0.42633057
0.34106445,-1.225647,-0.03375244
-0.16381836,-0.62945557,0.01361084
0.09277344,-0.6253052,-0.054260254
-0.11328125,-0.85528564,0.09197998
-0.024414062,-1.2334595,0.1383667
-0.16552734,-1.5449829,-0.02545166
0.59399414,-0.8110962,-0.06695557
-0.10571289,-1.2666626,0.050476074
0.02709961,-0.5991821,0.08343506
0.009521484,-0.5755005,0.057800293
-0.031982422,-0.97857666,0.20355225
0.060058594,-1.1294556,0.1149292
-0.25024414,-1.631897,0.007019043
0.12402344,-1.0935669,-0.21832275
0.25097656,-1.2151489,-0.2937622
-0.09375,-0.8106079,0.070495605
0.07373047,-0.42388916,-0.04058838
-0.052001953,-0.831604,-0.05987549
-0.010986328,-1.2261353,0.13250732
-0.07080078,-1.4595337,-0.08453369
0.60058594,-1.0588989,-0.09967041
-0.08886719,-1.2149048,0.061706543
0.11669922,-0.6231079,0.020935059
-0.06689453,-0.61968994,0.074645996
-0.03540039,-0.84698486,0.1906128
-0.045410156,-1.0508423,0.11590576
-0.30126953,-1.5679321,0.038757324
-0.041259766,-1.1328735,-0.11627197
0.43286133,-1.1643677,-0.35308838
-0.12084961,-0.8970337,0.08465576
0.07397461,-0.4644165,-0.050842285
-0.037841797,-0.7905884,0.0053100586
-0.14233398,-1.0977173,0.07098389
0.03466797,-1.3015747,-0.06573486
0.38842773,-1.1965942,-0.002746582
0.11254883,-1.1900024,0.16009521
0.1394043,-0.61846924,-0.026184082
-0.0793457,-0.6182251,0.023376465
0.023925781,-0.7703247,0.14544678
-0.10620117,-1.0894165,0.10296631
-0.28808594,-1.3391724,0.27044678
0.32006836,-1.2424927,-0.14605713
0.2993164,-1.3469849,-0.13604736
-0.053466797,-0.8364868,0.05731201
-0.022216797,-0.44903564,-0.0491333
-0.061279297,-0.77838135,0.07635498
-0.08569336,-0.97857666,0.12908936
-0.1274414,-1.2930298,0.3295288
0.072509766,-1.5408325,-0.06866455
0.24072266,-1.0230103,-0.10797119
0.083984375,-0.9067993,-0.055236816
-0.17285156,-0.61602783,0.117614746
0.08544922,-0.69122314,0.112976074
-0.16845703,-0.9883423,0.13787842
-0.11669922,-1.258606,0.27166748
0.19921875,-1.357727,-0.1026001
-0.07348633,-1.3010864,-0.3447876
0.31811523,-1.0530396,0.08905029
-0.18383789,-0.4993286,-0.0029907227
-0.036132812,-0.6565552,-0.02130127
-0.014404297,-0.9290161,0.10882568
-0.07397461,-1.3748169,0.18548584
0.22387695,-1.5413208,-0.23150635
0.31689453,-1.0352173,-0.117248535
0.30493164,-0.9260864,-0.014709473
-0.26513672,-0.5359497,0.10662842
0.08959961,-0.64801025,0.093933105
-0.11621094,-0.95977783,0.230896
-0.15209961,-1.3235474,0.2699585
0.21801758,-1.409729,0.035095215
0.047607422,-1.0498657,-0.32159424
0.27661133,-1.1177368,0.11224365
-0.17333984,-0.49371338,0.047546387
-0.02758789,-0.64678955,-0.0049438477
-0.024658203,-0.86602783,0.081726074
-0.16723633,-1.4048462,0.18426514
0.15966797,-1.562561,-0.066467285
0.5058594,-0.97320557,-0.089416504
0.13183594,-0.96295166,-0.050598145
-0.14672852,-0.5376587,0.09295654
0.09887695,-0.6670532,0.06903076
-0.05908203,-1.0344849,0.2243042
0.030517578,-1.2080688,0.2975464
0.2668457,-1.3757935,-0.015930176
-0.068847656,-1.1213989,-0.36798096
0.23388672,-1.1160278,-0.01739502
-0.18408203,-0.47955322,-0.025939941
-0.0021972656,-0.6904907,-0.038146973
0.033203125,-0.86724854,0.044128418
-0.14892578,-1.3916626,0.16571045
0.068115234,-1.4673462,-0.06719971
0.85375977,-0.8452759,-0.0029907227
-0.08081055,-1.2417603,0.02166748
-0.09887695,-0.40582275,0.10467529
0.010498047,-0.6716919,0.10687256
-0.14453125,-0.96759033,0.20721436
0.023925781,-1.170227,0.24432373
-0.15234375,-1.5964966,0.0028686523
0.0637207,-1.0037231,-0.18365479
0.1484375,-1.15802,-0.07965088
-0.1772461,-0.56817627,0.085876465
-0.016601562,-0.64068604,-0.020812988
-0.029052734,-0.79229736,0.08294678
-0.10083008,-1.305481,0.15716553
-0.067871094,-1.5945435,-0.01763916
0.7871094,-0.8196411,-0.07525635
-0.26416016,-1.3296509,-0.030090332
-0.016845703,-0.409729,0.10003662
0.09814453,-0.65826416,0.0927124
-0.046875,-0.9673462,0.1642456
-0.024414062,-1.2097778,0.12200928
0.08154297,-1.5320435,-0.0044555664
0.06665039,-1.0256958,-0.16241455
0.28979492,-1.2249146,-0.090148926
-0.19970703,-0.5762329,0.109313965
0.041259766,-0.5964966,-0.08282471
-0.038330078,-0.83917236,0.08807373
-0.067871094,-1.3184204,0.11566162
-0.016601562,-1.6277466,-0.012268066
0.8066406,-0.8257446,-0.08331299
-0.14111328,-1.2962036,0.011169434
-0.064697266,-0.49395752,0.08709717
0.05078125,-0.6421509,0.07196045
-0.16918945,-0.91241455,0.2819214
0.14624023,-1.190979,0.19085693
-0.10473633,-1.5669556,0.024841309
-0.0053710938,-1.0440063,-0.16656494
0.14672852,-1.2354126,-0.2276001
-0.15063477,-0.63653564,0.18817139
0.010009766,-0.5820923,-0.109436035
-0.026855469,-0.7888794,0.034362793
-0.09423828,-1.2346802,0.093444824
-0.08862305,-1.5620728,0.066345215
0.8149414,-0.98638916,-0.07086182
-0.31176758,-1.3115845,0.06732178
0.18969727,-0.4439087,0.013366699
-0.09448242,-0.62384033,0.034118652
0.060058594,-0.9002075,0.10321045
-0.18920898,-1.2068481,0.062194824
-0.30639648,-1.6167603,0.07244873
0.10620117,-1.0818481,-0.2966919
0.25585938,-1.2068481,-0.32305908
-0.17993164,-0.7542114,0.16986084
-0.04638672,-0.44439697,-0.113098145
-0.049072266,-0.79644775,0.0036010742
-0.056396484,-1.1882935,0.08758545
-0.12670898,-1.3621216,0.035583496
0.41723633,-1.0054321,-0.24810791
-0.15454102,-1.3191528,0.121276855
0.18188477,-0.6165161,-0.02154541
-0.08544922,-0.6211548,0.13275146
0.008544922,-0.71832275,0.15814209
-0.12158203,-1.1638794,0.22625732
-0.1875,-1.225647,0.17132568
0.12524414,-1.2434692,-0.11846924
0.17651367,-1.3557739,-0.22735596
0.056640625,-0.79937744,0.13909912
-0.05053711,-0.47320557,-0.049865723
-0.05493164,-0.7383423,0.043395996
-0.08666992,-1.0527954,0.09661865
-0.08666992,-1.4067993,0.27801514
0.1821289,-1.1658325,-0.34381104
0.14013672,-1.2549438,-0.0051879883
0.18676758,-0.78790283,-0.09283447
-0.14648438,-0.5237427,0.08758545
0.083740234,-0.78131104,0.1359253
-0.080322266,-1.0403442,0.14715576
-0.23364258,-1.2781372,0.3529663
0.64038086,-1.24469,-0.2901001
-0.110839844,-1.2097778,-0.3809204
0.31396484,-0.8286743,0.0067749023
-0.17993164,-0.39898682,-0.031799316
0.044677734,-0.78131104,-0.035461426
0.017822266,-1.0371704,0.02166748
-0.037353516,-1.440979,0.24163818
0.28271484,-1.2380981,-0.3291626
0.3149414,-1.2322388,-0.08746338
0.2277832,-0.71881104,-0.08453369
