accelX,accelY,accelZ
0.014892578,-0.98321533,0.0065307617
-0.011474609,-0.9714966,0.026794434
0.020751953,-0.98321533,-0.022033691
0.01171875,-0.97125244,0.0065307617
0.021240234,-1.0012817,-0.0005493164
0.05883789,-1.005188,0.0014038086
-0.038085938,-1.0020142,0.018005371
-0.05908203,-1.0071411,-0.023010254
-0.04345703,-0.991272,-0.004699707
-0.057373047,-1.0928345,0.021911621
-0.12084961,-0.93634033,0.031677246
-0.10961914,-0.9697876,0.04534912
-0.10571289,-0.9776001,0.028503418
-0.034179688,-1.0076294,0.07757568
-0.08325195,-1.0269165,0.026550293
-0.05444336,-0.93170166,0.05316162
-0.13793945,-1.022522,0.01776123
0.0031738281,-0.99884033,-0.013977051
-0.064941406,-0.94073486,0.024353027
-0.11694336,-1.0137329,-0.012023926
0.15991211,-1.0222778,-0.13165283
-0.020263672,-0.94659424,-0.008361816
0.12646484,-1.0205688,-0.035705566
0.23266602,-0.99176025,-0.12530518
0.0053710938,-1.135315,-0.022277832
0.109375,-0.8106079,-0.016174316
0.24780273,-0.9714966,0.07244873
-0.06298828,-1.0130005,0.03314209
0.16064453,-1.0066528,0.06951904
0.03881836,-1.0227661,0.08026123
0.01977539,-0.940979,0.058532715
0.07788086,-0.96051025,0.08026123
0.064208984,-0.9990845,0.1317749
-0.017578125,-0.96710205,0.08416748
0.37670898,-1.2554321,-0.18121338
-0.2578125,-0.6734009,0.1852417
0.22338867,-1.1255493,-0.1116333
-0.076416016,-0.89678955,-0.06011963
0.13769531,-1.2007446,-0.09063721
-0.026611328,-0.8508911,0.025817871
-0.056884766,-0.9788208,-0.022033691
-0.09106445,-0.96343994,-0.030090332
0.030273438,-0.98931885,-0.023254395
-0.06542969,-1.0154419,-0.051086426
0.049804688,-1.0535278,-0.07623291
-0.06982422,-0.9898071,-0.04425049
-0.091796875,-0.9331665,-0.05279541
-0.052490234,-1.0581665,-0.04888916
-0.07788086,-0.8526001,-0.041809082
0.17456055,-1.1260376,-0.089660645
-0.33129883,-0.9151001,-0.0020141602
0.17529297,-1.0405884,-0.019104004
0.20507812,-0.9661255,-0.09039307
-0.20605469,-1.0952759,0.047058105
0.064453125,-1.0725708,0.004333496
0.18164062,-0.925354,0.015075684
-0.084472656,-1.0552368,0.049987793
0.033935547,-0.93414307,0.10369873
0.03466797,-1.0454712,0.043395996
-0.01171875,-0.98443604,0.07489014
0.015625,-0.9727173,0.0680542
-0.040527344,-1.0081177,0.073913574
-0.010009766,-0.9546509,0.12347412
0.032958984,-1.0540161,-0.0056762695
0.19970703,-1.1521606,-0.13580322
-0.12597656,-0.75079346,0.17938232
0.064697266,-1.1150513,-0.018371582
0.053466797,-0.9546509,0.038269043
-0.20581055,-0.94781494,-0.027160645
0.33032227,-1.1746216,0.03265381
-0.2746582,-0.88726807,0.081726074
-0.0769043,-0.9678345,0.008239746
0.0014648438,-0.9968872,-0.042541504
-0.059814453,-1.0379028,0.081970215
0.005126953,-0.99591064,-0.035705566
-0.064697266,-0.95147705,0.0680542
-0.088134766,-1.0459595,0.0770874
-0.0021972656,-0.98638916,0.047058105
-0.07763672,-1.0264282,0.07952881
-0.027832031,-0.9771118,0.024597168
-0.10229492,-0.92266846,0.03387451
0.09350586,-1.0784302,0.025817871
-0.13745117,-0.92071533,0.031188965
0.09423828,-0.9846802,0.062438965
-0.047607422,-1.0244751,-0.061340332
0.11303711,-0.8921509,0.070007324
-0.07421875,-1.295227,0.007019043
0.09716797,-0.81744385,0.07928467
0.092285156,-1.0689087,0.093444824
0.001953125,-0.9578247,0.034606934
0.05078125,-1.0220337,0.04095459
-0.021728516,-0.9651489,0.08856201
0.017578125,-0.9771118,0.16619873
0.0859375,-1.0501099,0.07171631
-0.0061035156,-0.9060669,0.16644287
0.10546875,-1.2927856,-0.13482666
-0.07910156,-0.6819458,0.05706787
0.029296875,-1.0769653,-0.02911377
0.119628906,-0.9627075,0.12786865
-0.30004883,-1.0256958,0.101501465
0.099609375,-0.98516846,0.024108887
-0.05810547,-1.0386353,0.049743652
0.016845703,-0.96466064,-0.0044555664
0.0068359375,-0.9990845,0.074401855
-0.15307617,-1.0061646,0.05316162
-0.061279297,-1.0005493,0.08685303
-0.015380859,-1.0994263,-0.0115356445
0.15673828,-0.89923096,-0.105041504
-0.0053710938,-0.8123169,0.036071777
0.088134766,-1.3015747,-0.14752197
0.06616211,-0.81451416,0.061462402
-0.02709961,-0.89068604,0.039489746
0.096191406,-1.0291138,-0.014709473
-0.0012207031,-1.0149536,0.0004272461
-0.033691406,-1.0264282,0.03753662
0.044433594,-0.9829712,0.090026855
0.0068359375,-0.9651489,0.1449585
-0.1850586,-1.055481,-0.112854004
0.23242188,-0.9302368,-0.14239502
0.09399414,-1.1641235,0.08685303
-0.1784668,-0.8008423,0.054382324
-0.0061035156,-1.0444946,-0.0017700195
-0.034179688,-1.0540161,0.06488037
-0.0126953125,-0.9265747,0.09661865
-0.052246094,-0.99346924,0.085632324
-0.07763672,-1.0339966,0.13543701
-0.111328125,-0.9439087,0.1515503
0.020263672,-1.0042114,0.14886475
-0.13842773,-1.0779419,0.06463623
0.115478516,-0.76568604,0.08807373
0.17749023,-1.0859985,0.24139404
-0.055908203,-1.1123657,0.05657959
-0.07324219,-0.8862915,0.15179443
0.051757812,-1.0039673,0.19207764
-0.060302734,-0.9258423,0.18841553
-0.0126953125,-1.0015259,0.1798706
-0.07910156,-0.99713135,0.21136475
-0.018798828,-0.9480591,0.26116943
-0.03515625,-0.92633057,0.23016357
-0.17285156,-1.0161743,0.32073975
0.2631836,-1.1819458,0.04486084
-0.22802734,-0.8106079,0.23138428
-0.048095703,-1.0291138,0.039489746
-0.044433594,-1.0464478,0.101745605
-0.13427734,-0.95635986,0.08929443
-0.079833984,-0.973938,0.03729248
-0.061279297,-0.9939575,0.11932373
-0.07788086,-0.9854126,0.07733154
-0.076416016,-1.019104,0.17327881
-0.09716797,-0.9788208,0.15423584
-0.2524414,-0.9834595,0.18035889
0.011230469,-1.21344,0.0040893555
0.13500977,-1.0674438,0.06488037
-0.2163086,-1.0332642,0.0138549805
0.15576172,-0.90753174,0.15887451
-0.12817383,-1.2351685,0.14276123
-0.084228516,-0.798645,0.13909912
0.071777344,-0.9817505,0.24017334
-0.14575195,-1.0369263,0.18597412
-0.008544922,-1.0278931,0.1749878
-0.091552734,-0.9378052,0.22332764
0.0126953125,-1.0581665,0.2970581
-0.052001953,-0.99053955,0.25604248
-0.041748047,-0.96954346,0.26678467
-0.12060547,-1.034729,0.21917725
-0.09277344,-1.0283813,0.12786865
-0.0021972656,-0.7390747,0.12249756
-0.008056641,-1.1594849,0.13104248
-0.15966797,-0.8609009,0.18597412
-0.041259766,-1.041565,0.15545654
-0.1081543,-0.96588135,0.17352295
-0.12475586,-0.9951782,0.1618042
-0.08178711,-1.0147095,0.1930542
-0.10961914,-0.9656372,0.1942749
-0.12866211,-0.9927368,0.17596436
-0.13989258,-0.9819946,0.21185303
-0.064453125,-1.0547485,0.1005249
-0.024414062,-1.0535278,0.0048217773
-0.017089844,-0.8987427,0.046081543
-0.25073242,-1.2300415,0.16741943
0.21850586,-0.85479736,0.13690186
-0.08105469,-0.88409424,0.113464355
-0.079833984,-1.078186,0.17474365
-0.03466797,-1.000061,0.14984131
-0.10449219,-0.99664307,0.2033081
0.029541016,-0.95928955,0.25115967
-0.053710938,-0.97320557,0.23187256
-0.15820312,-1.0112915,0.2994995
0.09082031,-1.1033325,0.1239624
-0.2607422,-0.8994751,0.23309326
0.040527344,-1.0161743,0.09954834
-0.068359375,-0.9463501,0.21942139
-0.1640625,-1.00177,0.1798706
0.0,-0.9290161,0.22064209
-0.21191406,-0.96417236,0.18353271
-0.15136719,-0.97320557,0.14788818
-0.1784668,-0.94122314,0.23895264
-0.16601562,-0.99664307,0.30584717
-0.22607422,-0.9751587,0.2477417
-0.24194336,-0.93536377,0.2333374
-0.19824219,-0.93927,0.31976318
-0.1887207,-0.9624634,0.30413818
-0.07348633,-0.9351196,0.21380615
-0.18945312,-0.9800415,0.2333374
-0.095703125,-0.99835205,0.20355225
0.0007324219,-0.98809814,0.1708374
-0.0146484375,-0.9553833,0.12176514
-0.10498047,-1.1170044,0.16278076
0.0715332,-0.9151001,0.059753418
-0.08666992,-0.9590454,0.21380615
-0.03881836,-0.9522095,0.22210693
-0.0009765625,-1.0674438,0.18133545
-0.07495117,-0.9019165,0.21917725
-0.07836914,-0.86016846,0.24310303
-0.10180664,-0.9500122,0.30096436
0.16503906,-1.3352661,0.07196045
-0.3935547,-0.92681885,0.26849365
0.111328125,-0.98760986,0.097351074
-0.04345703,-0.87872314,0.21356201
-0.079589844,-1.0484009,0.15960693
-0.038085938,-1.0789185,0.21844482
-0.045898438,-1.0061646,0.13543701
-0.1015625,-0.8726196,0.07562256
-0.18530273,-1.0090942,0.2772827
-0.16796875,-0.96295166,0.19525146
-0.1340332,-0.90582275,0.22064209
-0.13574219,-0.9734497,0.2531128
-0.17700195,-0.9812622,0.19818115
-0.05029297,-0.99053955,0.22015381
-0.18701172,-0.93341064,0.29608154
-0.20751953,-0.8892212,0.29852295
-0.12524414,-0.96588135,0.2994995
-0.20898438,-1.2153931,0.11199951
-0.13916016,-0.96661377,0.22064209
-0.107666016,-0.94415283,0.22161865
-0.050048828,-1.0122681,0.11907959
-0.10449219,-1.0093384,0.17938232
-0.011474609,-0.90411377,0.112976074
0.022705078,-1.0906372,0.17010498
0.09106445,-1.0637817,0.016296387
-0.026855469,-0.97857666,0.1461792
-0.048828125,-1.0105591,0.1317749
0.08520508,-0.9939575,0.14666748
-0.06982422,-0.94415283,0.23358154
-0.18334961,-0.9404907,0.23822021
0.006591797,-1.0037231,0.22088623
-0.014404297,-0.89849854,0.21697998
0.09448242,-1.1836548,0.04852295
-0.055419922,-0.9841919,0.12689209
-0.14526367,-0.9817505,0.14251709
0.020263672,-1.0325317,0.20379639
-0.057861328,-0.9956665,0.184021
-0.07348633,-0.9783325,0.2255249
-0.10546875,-0.9299927,0.12615967
0.03491211,-1.0835571,0.09442139
-0.091796875,-1.0274048,0.12030029
-0.104003906,-0.99176025,0.12689209
-0.12841797,-0.99542236,0.14691162
-0.08105469,-0.94244385,0.21087646
-0.052734375,-0.93096924,0.18792725
-0.10058594,-0.9920044,0.26556396
-0.10571289,-0.92315674,0.2020874
-0.1237793,-0.9937134,0.20062256
-0.18286133,-0.94854736,0.26727295
-0.10083008,-0.97198486,0.22991943
-0.06274414,-1.0335083,0.12884521
-0.041992188,-0.9234009,0.2592163
-0.13500977,-1.0256958,0.1720581
-0.12915039,-1.0564575,0.15447998
-0.09716797,-0.9468384,0.11419678
0.068115234,-0.99298096,0.077819824
0.045654297,-1.0007935,0.17303467
-0.010986328,-1.0679321,0.045837402
0.057373047,-0.9649048,0.20062256
-0.10571289,-0.8796997,0.16156006
-0.0009765625,-1.050354,0.25238037
-0.019042969,-1.0076294,0.18817139
-0.07495117,-0.9614868,0.2531128
-0.05053711,-0.88360596,0.19085693
-0.067871094,-0.989563,0.24359131
-0.0036621094,-1.0703735,0.09515381
-0.0949707,-1.1526489,0.11444092
-0.09423828,-0.9793091,0.23040771
-0.0053710938,-0.9985962,0.06439209
-0.05834961,-0.9793091,0.05267334
-0.1821289,-0.9404907,0.14544678
-0.015136719,-1.0908813,0.13275146
-0.21655273,-0.9192505,0.11834717
-0.118896484,-0.99298096,0.17547607
-0.18359375,-0.9612427,0.199646
-0.11621094,-0.9463501,0.2189331
-0.22485352,-1.0569458,0.17669678
-0.16552734,-0.9282837,0.25897217
-0.18408203,-0.95635986,0.17816162
-0.20825195,-0.95147705,0.23626709
-0.1472168,-1.1062622,0.22991943
-0.1274414,-0.9692993,0.15130615
-0.10595703,-0.99298096,0.19134521
-0.08496094,-1.071106,0.12786865
-0.09765625,-1.0108032,0.09075928
0.063964844,-0.99591064,0.11859131
-0.171875,-1.1206665,0.16546631
-0.001953125,-0.833313,0.18939209
0.056640625,-1.0061646,0.1383667
-0.13476562,-0.9644165,0.17572021
-0.049072266,-1.0823364,0.1708374
-0.03491211,-0.9976196,0.2189331
-0.095947266,-0.9151001,0.22235107
-0.1237793,-0.973938,0.25238037
-0.06665039,-1.1155396,0.109069824
0.059814453,-0.9741821,0.12982178
-0.0847168,-0.88653564,0.2802124
0.006591797,-1.0144653,0.051940918
-0.034423828,-0.9741821,0.20404053
-0.17382812,-0.9053345,-0.047912598
0.04272461,-1.2300415,0.061462402
-0.16357422,-0.85113525,0.14837646
-0.1015625,-1.0405884,0.13153076
-0.15136719,-0.92852783,0.21551514
-0.052001953,-0.99835205,0.17572021
-0.09399414,-0.99664307,0.15130615
-0.14404297,-0.9524536,0.1984253
-0.1586914,-0.95562744,0.23846436
-0.15576172,-0.90093994,0.25408936
-0.14404297,-1.0252075,0.12860107
0.04272461,-1.0796509,0.13372803
-0.13769531,-1.0369263,0.121520996
0.017822266,-0.9507446,0.0758667
0.06738281,-0.9356079,0.14935303
-0.12036133,-1.1384888,0.14447021
0.0126953125,-0.9234009,0.2020874
-0.017089844,-0.93634033,0.17938232
-0.13378906,-0.9365845,0.21356201
-0.12182617,-1.0462036,0.26287842
0.08105469,-0.9380493,0.26263428
-0.13793945,-0.89556885,0.27191162
-0.107421875,-0.9829712,0.27215576
-0.0546875,-1.0535278,0.28997803
0.04296875,-0.8880005,0.30633545
-0.036865234,-0.9651489,0.26678467
-0.13598633,-1.0684204,0.14398193
0.10131836,-0.85821533,0.11907959
-0.21166992,-1.111145,0.20281982
-0.083984375,-0.9456177,0.23846436
-0.13696289,-0.98516846,0.17230225
-0.08300781,-0.95880127,0.22845459
-0.119384766,-0.9771118,0.24505615
-0.09667969,-0.9902954,0.20428467
-0.125,-0.9627075,0.26141357
-0.13891602,-0.96295166,0.24676514
-0.18701172,-0.96588135,0.26385498
-0.1472168,-0.940979,0.25946045
-0.11425781,-0.9746704,0.19793701
-0.034423828,-0.9434204,0.17376709
-0.20336914,-1.0376587,0.14007568
0.046875,-1.0308228,0.10443115
0.02758789,-0.8833618,0.14569092
-0.0871582,-1.1878052,0.08514404
0.05419922,-0.8682251,0.22601318
-0.057128906,-1.02594,0.117614746
-0.025390625,-0.9229126,0.20135498
-0.040039062,-1.0523071,0.09222412
-0.041015625,-1.0095825,0.16156006
-0.009765625,-0.99346924,0.11004639
-0.060791016,-0.9541626,0.1708374
-0.16040039,-1.0012817,0.18865967
0.18847656,-1.0979614,-0.043273926
-0.09033203,-0.8311157,0.3307495
-0.114990234,-0.99664307,0.07098389
0.044921875,-0.97906494,0.21624756
-0.1394043,-0.944397,0.12005615
-0.1430664,-1.0632935,0.2140503
-0.09741211,-0.942688,0.25213623
-0.12719727,-0.99346924,0.15228271
-0.10961914,-0.94976807,0.22747803
-0.095214844,-0.98272705,0.22015381
-0.20532227,-0.9990845,0.18426514
-0.16040039,-0.9902954,0.2423706
-0.17041016,-0.94366455,0.27581787
-0.17089844,-0.9841919,0.19793701
