accelX,accelY,accelZ
-0.11206055,-0.94317627,0.27679443
-0.12866211,-0.94244385,0.26922607
-0.1184082,-0.9456177,0.2868042
-0.1159668,-0.9385376,0.27825928
-0.10498047,-0.93951416,0.26605225
-0.115722656,-0.9414673,0.2772827
-0.06982422,-0.95758057,0.26507568
-0.006591797,-0.9089966,0.26727295
0.06738281,-0.87384033,0.34783936
-0.03881836,-0.9937134,0.35028076
-0.07885742,-0.8340454,0.27435303
0.092041016,-0.89971924,0.22698975
-0.12670898,-1.0818481,0.06536865
-0.16821289,-0.8648071,-0.016418457
-0.072753906,-1.1445923,0.101989746
-0.25219727,-0.987854,0.06317139
-0.14331055,-0.8760376,0.0065307617
-0.080078125,-1.0288696,0.101989746
-0.024902344,-1.1611938,0.06072998
0.06933594,-0.82354736,0.25457764
-0.19018555,-1.0466919,0.1852417
0.12915039,-0.82159424,0.20819092
0.2097168,-0.91192627,0.17034912
-0.2319336,-0.9373169,0.24847412
-0.099121094,-1.1433716,-0.11895752
-0.06298828,-0.8977661,0.05706787
-0.13378906,-1.1043091,-0.020812988
-0.3034668,-0.9402466,0.0524292
-0.10961914,-0.86309814,0.026550293
-0.13183594,-1.041565,0.054626465
0.17260742,-1.1511841,0.23675537
-0.008544922,-0.7749634,0.042419434
-0.12866211,-1.0283813,0.25457764
0.2524414,-0.8843384,0.18865967
0.015380859,-0.9199829,0.23138428
-0.43896484,-1.2131958,-0.008605957
-0.034423828,-0.9717407,-0.01739502
-0.13623047,-0.9414673,0.0138549805
-0.1694336,-1.0205688,0.0524292
-0.3161621,-0.8843384,-0.04498291
-0.07348633,-0.9734497,0.14422607
-0.16748047,-1.1155396,0.059753418
0.17651367,-0.9849243,0.17767334
-0.024902344,-0.82159424,0.10687256
-0.11669922,-1.0405884,0.22210693
0.087890625,-0.77056885,0.18206787
0.05810547,-0.91729736,0.20770264
-0.39013672,-1.2786255,-0.042297363
-0.13549805,-0.9529419,-0.11773682
-0.037353516,-0.9956665,0.055358887
-0.27270508,-1.0088501,0.043151855
-0.27612305,-0.8731079,-0.08331299
-0.040039062,-1.02594,0.12860107
-0.23901367,-1.1799927,-0.02520752
0.21386719,-0.72320557,0.21014404
-0.3017578,-1.0911255,0.08026123
0.095214844,-0.8189087,0.18231201
0.091796875,-0.960022,0.19598389
-0.19726562,-0.8574829,0.21063232
-0.16113281,-1.1907349,-0.11578369
-0.114746094,-0.8831177,0.015563965
-0.095214844,-1.0266724,-0.026184082
-0.2631836,-0.9973755,0.09637451
-0.15600586,-0.8777466,-0.007385254
-0.03515625,-1.1621704,0.050720215
0.12841797,-0.86505127,0.16595459
-0.04248047,-0.77789307,0.030212402
-0.045654297,-1.1443481,0.25213623
0.12768555,-0.8557739,0.21160889
-0.006591797,-0.8467407,0.23431396
-0.3791504,-1.1235962,0.012634277
0.032958984,-1.1026001,-0.03692627
-0.011230469,-0.88067627,0.035583496
-0.048828125,-1.072815,0.03265381
-0.39404297,-0.9614868,0.0028686523
0.13549805,-1.0093384,0.13372803
0.1875,-1.0171509,0.13690186
-0.13500977,-0.79937744,0.10491943
-0.033447266,-1.0779419,0.17938232
0.22192383,-0.8604126,0.2453003
0.05834961,-0.79815674,0.14691162
-0.29125977,-1.3047485,-0.058166504
-0.061523438,-0.91729736,-0.12554932
0.07104492,-1.0112915,-0.028381348
-0.08984375,-1.065979,-0.0010375977
-0.25146484,-0.9602661,-0.07159424
0.13012695,-0.96954346,0.05731201
0.078125,-1.4065552,0.09124756
0.12841797,-0.6868286,0.097839355
-0.26171875,-1.069397,0.08270264
0.23266602,-0.89019775,0.2531128
0.22021484,-0.84625244,0.08905029
-0.21313477,-0.9060669,0.20037842
0.021240234,-1.203186,-0.23150635
0.14575195,-0.9627075,0.00091552734
0.021972656,-0.98883057,-0.12921143
-0.35717773,-1.0164185,0.05633545
0.04272461,-0.97857666,-0.003967285
0.1081543,-1.3718872,0.014831543
0.16040039,-0.6404419,0.03753662
-0.12963867,-0.9614868,0.010925293
-0.020996094,-0.91241455,0.19525146
0.3605957,-0.75982666,0.10491943
-0.16210938,-1.2683716,0.032165527
-0.14990234,-0.93707275,-0.16046143
0.13330078,-0.93927,0.011657715
-0.021728516,-0.99713135,-0.030822754
-0.36791992,-1.0105591,-0.030090332
0.103759766,-0.93951416,0.12713623
0.1640625,-1.260315,0.08905029
0.16503906,-0.69415283,0.18597412
-0.2746582,-1.0674438,0.11029053
0.2487793,-0.81256104,0.2086792
0.19067383,-0.9024048,0.16522217
-0.4020996,-1.2017212,-0.0049438477
0.17456055,-0.91900635,-0.14459229
-0.061279297,-1.0588989,0.04534912
-0.06347656,-0.9751587,-0.06842041
-0.22143555,-0.9541626,-0.09185791
0.17480469,-0.958313,-0.046936035
0.30297852,-1.0205688,0.14715576
-0.01953125,-0.8010864,0.036071777
-0.044189453,-1.1355591,0.17132568
0.28710938,-0.84747314,0.18499756
0.0036621094,-0.8772583,0.14349365
-0.21655273,-1.25177,-0.237854
0.1328125,-0.82281494,-0.0491333
0.06665039,-1.0205688,-0.13409424
-0.19238281,-1.0020142,0.074401855
-0.09692383,-0.88726807,-0.09576416
0.103271484,-1.1001587,0.09661865
0.14404297,-1.1316528,0.13446045
0.095458984,-0.65509033,0.020446777
-0.16772461,-1.2009888,0.16864014
0.24145508,-0.86260986,0.19378662
0.07885742,-0.83843994,0.11077881
-0.40698242,-1.3135376,-0.101135254
0.16479492,-1.013977,-0.16046143
0.107666016,-0.9837036,0.026306152
-0.22436523,-1.0376587,-0.00079345703
-0.27441406,-0.9368286,-0.109191895
0.19384766,-0.9793091,0.121520996
0.10498047,-1.3186646,0.12591553
0.053955078,-0.65802,0.03704834
-0.1303711,-1.0935669,0.18988037
0.1381836,-0.84332275,0.23773193
0.12207031,-0.8225708,0.13641357
-0.359375,-1.5044556,-0.144104
0.048339844,-0.78204346,-0.18487549
0.068359375,-1.0527954,0.0914917
-0.17578125,-0.99176025,-0.0012817383
-0.2133789,-0.9258423,-0.06768799
0.109375,-0.9924927,0.02923584
0.31176758,-1.2183228,0.24456787
-0.07080078,-0.7647095,-0.014465332
-0.013183594,-1.0379028,0.18939209
0.3486328,-0.8999634,0.1942749
-0.022460938,-0.8328247,0.09173584
-0.13452148,-1.3140259,-0.2774048
0.1508789,-0.819397,-0.08721924
0.037597656,-1.0689087,-0.16070557
-0.2565918,-0.9487915,0.002380371
-0.04248047,-0.9570923,-0.07330322
0.19677734,-1.0698853,0.00091552734
0.26416016,-1.1697388,0.1852417
-0.16479492,-0.7319946,-0.06500244
0.016601562,-0.9038696,0.109069824
0.45654297,-1.0405884,0.19329834
-0.12548828,-0.8447876,0.109069824
-0.33032227,-1.2195435,-0.25177002
0.2758789,-1.0159302,-0.14361572
0.038085938,-0.9014282,0.019226074
-0.2253418,-1.0493774,-0.028381348
-0.23535156,-1.0266724,-0.120910645
0.14990234,-0.9529419,0.08001709
0.24829102,-1.2319946,0.21331787
-0.05029297,-0.65997314,-0.04058838
-0.060791016,-1.1841431,0.13201904
0.2783203,-0.8452759,0.19647217
0.07373047,-0.755188,0.036071777
-0.24682617,-1.5481567,-0.28961182
0.092285156,-0.8032837,-0.097473145
0.21557617,-0.9216919,-0.093322754
-0.2590332,-1.0422974,-0.013244629
-0.06738281,-0.96832275,0.010925293
0.2578125,-1.4092407,0.14837646
0.05859375,-0.68170166,0.034606934
-0.25830078,-0.97906494,0.12884521
0.19897461,-0.9102173,0.1828003
0.11376953,-0.8760376,0.13079834
-0.47387695,-1.3171997,-0.1885376
0.091552734,-0.95513916,-0.16607666
0.10595703,-0.9194946,0.049987793
-0.20776367,-1.0496216,-0.05230713
-0.20678711,-0.9602661,-0.06719971
0.20898438,-1.0044556,-0.11260986
0.21826172,-0.8152466,0.120788574
-0.2253418,-0.7788696,-0.012268066
0.049560547,-0.96588135,0.14593506
0.2788086,-0.956604,0.20379639
-0.14746094,-0.8069458,0.032409668
0.057128906,-1.140686,-0.20367432
-0.0087890625,-0.86920166,0.008728027
-0.010009766,-1.0637817,-0.14923096
-0.234375,-0.9522095,-0.0115356445
-0.0769043,-0.93536377,0.019470215
-0.0009765625,-0.9612427,0.035827637
0.35546875,-1.2686157,0.2140503
-0.068603516,-0.7437134,0.08709717
-0.09277344,-0.99102783,0.062683105
0.21264648,-0.9824829,0.24920654
-0.010009766,-0.89556885,0.10443115
-0.18774414,-0.9871216,0.026062012
0.10473633,-1.1157837,-0.13067627
-0.08178711,-0.8262329,-0.09576416
0.09814453,-1.0569458,-0.14141846
-0.29467773,-1.0674438,0.043640137
-0.044921875,-0.83062744,-0.051818848
0.0625,-1.0679321,-0.07720947
0.4633789,-0.97784424,0.16644287
-0.16992188,-0.710022,-0.077941895
0.041503906,-1.0237427,0.12615967
0.2956543,-0.92633057,0.25897217
-0.06225586,-0.72613525,0.043395996
-0.10180664,-1.7485962,-0.3418579
0.15820312,-0.8279419,-0.10015869
0.02734375,-0.909729,-0.25201416
-0.18017578,-1.0527954,0.105651855
-0.020996094,-0.99884033,-0.11895752
0.13989258,-0.85113525,-0.22955322
0.2902832,-0.70318604,0.09051514
-0.30029297,-0.98321533,-0.09527588
0.14624023,-0.8460083,0.07244873
0.24633789,-0.9212036,0.1930542
-0.6933594,-1.7388306,-0.4434204
0.07543945,-0.84381104,-0.26153564
0.09667969,-0.84747314,0.0446167
-0.31274414,-1.1602173,-0.03717041
-0.18457031,-0.82232666,-0.1453247
0.15014648,-1.0093384,0.1473999
0.2919922,-1.3052368,0.2670288
-0.076416016,-0.6265259,-0.011779785
-0.09326172,-1.1712036,0.1749878
0.32495117,-0.87579346,0.18548584
-0.0041503906,-0.9006958,0.12176514
-0.234375,-0.86676025,0.038757324
0.33496094,-1.2373657,-0.04034424
-0.10986328,-0.7576294,0.089538574
0.12768555,-1.1443481,-0.18243408
-0.3630371,-1.0950317,0.049743652
0.18725586,-0.7937622,0.016784668
-0.10131836,-1.1790161,-0.0713501
0.40429688,-0.6873169,0.15740967
-0.13671875,-0.88067627,-0.020324707
0.049560547,-0.9612427,0.17254639
0.28466797,-0.8201294,0.1774292
-0.084472656,-0.80181885,0.16864014
-0.15283203,-1.819397,-0.3352661
0.19384766,-0.6921997,-0.07086182
0.26000977,-0.79229736,-0.27423096
-0.5187988,-1.2468872,0.30584717
-0.020751953,-0.8049927,-0.08258057
0.25830078,-1.039856,-0.0491333
0.328125,-0.84991455,0.13885498
-0.1418457,-0.70147705,-0.0947876
0.012451172,-1.1072388,0.17034912
0.35131836,-0.8735962,0.1642456
-0.06933594,-0.89434814,0.06707764
-0.24804688,-1.5584106,-0.21343994
0.09692383,-0.79693604,-0.11212158
0.12011719,-0.8970337,-0.11602783
-0.17382812,-1.0371704,0.07952881
-0.111328125,-0.9529419,0.0079956055
0.055908203,-1.0105591,-0.08892822
0.3737793,-0.87164307,0.21722412
-0.19946289,-0.7444458,-0.11138916
0.025390625,-1.0515747,0.19989014
0.34301758,-0.9092407,0.18035889
-0.10205078,-0.85162354,0.15081787
-0.125,-1.4458618,-0.21466064
0.15429688,-0.9065552,-0.074035645
0.032714844,-0.913147,-0.06915283
-0.24633789,-1.0339966,0.09539795
-0.045166016,-1.0220337,-0.0256958
0.107666016,-1.0906372,-0.089660645
0.19311523,-0.69854736,0.21746826
-0.47875977,-1.0769653,0.13323975
0.2006836,-0.71051025,0.05657959
0.37304688,-0.9607544,0.1149292
-0.67578125,-1.5078735,-0.16778564
-0.08081055,-0.9536743,-0.15167236
0.14331055,-0.8987427,0.036315918
-0.21923828,-1.104065,-0.04083252
-0.25512695,-0.9529419,-0.09698486
0.12573242,-0.93878174,0.07269287
0.25048828,-1.1270142,0.18817139
-0.0087890625,-0.647522,0.02142334
-0.19189453,-1.1524048,0.14715576
0.33251953,-0.8870239,0.24163818
0.033691406,-0.81085205,0.093444824
-0.43408203,-1.1585083,-0.057434082
0.20898438,-0.9475708,-0.10308838
-0.059814453,-0.8640747,0.0680542
-0.08642578,-1.039856,-0.0635376
-0.24414062,-1.0654907,-0.053527832
0.125,-0.8694458,0.08050537
0.32983398,-1.4028931,0.371521
-0.057861328,-0.8413696,0.047546387
-0.114990234,-0.90875244,0.09173584
0.3791504,-0.958313,0.22894287
0.0053710938,-0.8936157,0.13397217
-0.2697754,-0.8442993,0.051696777
0.30126953,-0.9614868,-0.059387207
-0.05859375,-0.8335571,0.0758667
-0.079589844,-1.062561,-0.093811035
-0.2163086,-1.1018677,0.016784668
0.08886719,-0.9014282,0.101989746
-0.068359375,-1.4612427,0.09539795
0.15014648,-0.5913696,0.17254639
-0.2541504,-1.1067505,0.10467529
0.16699219,-0.9192505,0.21429443
0.171875,-0.8587036,0.0914917
-0.3244629,-0.8413696,0.08782959
0.123046875,-1.1555786,-0.097717285
0.18017578,-0.9133911,0.058044434
-0.11401367,-0.99713135,-0.18951416
-0.38867188,-1.0230103,0.07171631
0.18554688,-1.0081177,0.1449585
0.021728516,-1.3425903,0.028747559
-0.07788086,-0.6477661,0.1281128
-0.06518555,-0.9768677,0.021911621
0.21264648,-1.0108032,0.23675537
0.1430664,-0.8027954,0.081726074
-0.13208008,-1.0100708,0.17279053
0.05883789,-1.024231,-0.21710205
0.079589844,-0.9385376,-0.13970947
0.061767578,-1.0137329,-0.02911377
-0.3881836,-1.0227661,-6.1035156e-05
0.057128906,-1.0354614,0.005554199
0.15771484,-1.0891724,-0.17340088
0.16577148,-0.7241821,0.17230225
-0.28808594,-0.9714966,0.011657715
0.14550781,-0.91778564,0.20037842
0.15917969,-0.8713989,0.1305542
-0.14819336,-0.9104614,0.14178467
0.16479492,-1.0747681,-0.16558838
0.096191406,-0.8706665,-0.03253174
-0.053710938,-1.0784302,-0.0881958
-0.24023438,-1.0137329,0.03387451
0.08154297,-1.0369263,0.11199951
-0.06542969,-1.362854,0.038024902
0.19360352,-0.6355591,0.09539795
-0.28637695,-1.06427,0.11468506
0.31152344,-0.8831177,0.1359253
0.12451172,-0.93218994,0.12176514
-0.33203125,-0.93829346,-0.0012817383
0.21411133,-1.0542603,-0.09259033
0.119384766,-0.9302368,0.021911621
-0.15209961,-1.1401978,-0.07354736
-0.25024414,-0.87579346,0.036071777
0.07861328,-1.0574341,0.09124756
0.038330078,-1.0535278,-0.12042236
0.22314453,-0.7559204,0.24578857
-0.29833984,-1.2346802,0.077819824
0.15625,-0.67852783,0.038024902
0.22827148,-1.1411743,0.23797607
-0.18847656,-0.8533325,0.13787842
-0.12768555,-1.4517212,-0.3118286
0.0017089844,-0.8831177,-0.093811035
0.10131836,-0.91119385,-0.039611816
-0.38012695,-1.0481567,0.10467529
-0.015625,-0.9351196,-0.034240723
0.1586914,-0.99176025,0.15252686
0.017822266,-1.1638794,0.12322998
-0.056884766,-0.7029419,0.10223389
-0.04663086,-1.1655884,0.26849365
0.09423828,-0.8286743,0.25628662
-0.040771484,-0.96099854,0.15814209
-0.21362305,-0.80548096,0.17010498
0.107421875,-1.3081665,-0.07720947
