accelX,accelY,accelZ
-0.027832031,-0.9824829,-0.1572876
0.01171875,-0.99346924,-0.14581299
0.025634766,-0.91534424,-0.15655518
0.15283203,-0.87750244,-0.12042236
-0.061279297,-1.2803345,0.05731201
0.41015625,-0.8928833,-0.04156494
0.1862793,-1.0120239,0.041931152
0.27539062,-0.73101807,0.0018920898
-0.049072266,-0.96466064,-0.016662598
0.4296875,-1.171936,-0.26275635
-0.031982422,-1.0496216,-0.17437744
0.16625977,-0.9224243,-0.21881104
-0.01586914,-0.9678345,-0.21612549
0.041503906,-0.96710205,-0.18780518
0.020263672,-0.99176025,-0.22540283
0.045654297,-0.95635986,-0.15948486
0.06665039,-0.8394165,-0.21124268
0.38134766,-1.060852,0.15252686
0.2854004,-1.1619263,-0.1104126
0.1574707,-0.986145,0.030212402
0.23535156,-0.71588135,0.051696777
0.024169922,-0.88531494,-0.097961426
0.32006836,-1.260315,-0.09674072
-0.09887695,-0.7822876,-0.14385986
0.19360352,-1.1152954,-0.18023682
-0.024169922,-0.94244385,-0.1609497
0.024414062,-0.9859009,-0.1296997
-0.021972656,-0.9758911,-0.2029419
-0.007080078,-1.0144653,-0.14263916
-0.08081055,-0.96759033,-0.09136963
0.0690918,-0.88165283,-0.14215088
0.578125,-1.1030884,0.17327881
0.034423828,-1.131897,-0.13824463
0.24780273,-0.9170532,0.06317139
0.14770508,-0.8154907,0.038513184
-0.046142578,-0.9771118,0.113708496
0.22802734,-1.1411743,-0.35040283
-0.21972656,-0.8069458,-0.093322754
0.28759766,-1.0459595,-0.13287354
-0.09057617,-0.94659424,-0.1651001
0.010986328,-1.1340942,-0.16583252
0.034179688,-0.91851807,-0.14215088
0.07055664,-0.9702759,-0.11383057
0.076660156,-0.95098877,-0.085754395
0.17553711,-0.62335205,-0.2805786
0.09765625,-1.725647,-0.13531494
0.4794922,-0.63653564,-0.05230713
0.056396484,-0.8970337,0.046569824
0.36889648,-0.7329712,0.053649902
0.22045898,-1.2764282,-0.22442627
0.010986328,-0.8008423,-0.17877197
0.2685547,-0.9734497,-0.15582275
0.045410156,-0.9834595,-0.16949463
0.07861328,-1.0090942,-0.18609619
0.04638672,-1.0562134,-0.12432861
0.015380859,-0.9656372,-0.10723877
0.072265625,-0.9702759,-0.10626221
-0.0007324219,-0.88604736,-0.11383057
0.5078125,-1.0366821,0.113464355
0.107421875,-0.9649048,-0.18682861
0.3552246,-0.944397,0.018493652
0.30249023,-0.9299927,-0.031066895
0.16894531,-0.9614868,0.0072631836
0.010986328,-0.7402954,0.050964355
0.19921875,-0.86602783,-0.19122314
0.14819336,-1.2713013,-0.13677979
0.1538086,-0.99346924,-0.112854004
0.05053711,-0.9500122,-0.2559204
0.13183594,-0.9771118,-0.25494385
0.03173828,-0.8982544,-0.2354126
0.10498047,-0.9360962,-0.190979
0.078125,-0.8584595,-0.09185791
0.30273438,-1.0681763,-0.0068969727
0.15625,-1.09552,-0.22198486
0.28686523,-0.97613525,-0.046936035
0.29492188,-0.94781494,-0.06793213
0.19238281,-0.94073486,-0.018859863
0.13623047,-0.85479736,0.035827637
-0.01171875,-0.6782837,0.07269287
0.6833496,-1.7546997,-0.35357666
-0.045654297,-0.7764282,-0.062316895
0.17211914,-0.9121704,-0.16851807
-0.07299805,-0.95147705,-0.16217041
0.01928711,-1.0645142,-0.1831665
0.037597656,-0.95806885,-0.13970947
0.087402344,-0.9163208,-0.14483643
0.091796875,-0.8049927,-0.07354736
0.22265625,-1.2229614,0.0038452148
0.13183594,-0.9963989,-0.17266846
0.3864746,-1.0479126,0.035339355
0.2133789,-0.89923096,-0.09893799
0.25585938,-0.9429321,0.0067749023
0.10986328,-0.87506104,0.027282715
0.14404297,-0.8230591,0.010437012
0.15625,-1.2420044,-0.2041626
0.036865234,-0.8862915,-0.13555908
0.057617188,-1.1299438,-0.1975708
0.020996094,-1.036438,-0.1843872
0.037597656,-0.8897095,-0.18560791
0.064941406,-0.95025635,-0.12628174
0.030517578,-0.9155884,-0.15264893
0.09765625,-0.89068604,-0.026428223
0.15283203,-1.1187134,0.01361084
0.13354492,-1.1277466,-0.15118408
0.24487305,-0.9697876,0.027038574
0.30297852,-1.0479126,-0.03717041
0.18359375,-0.8723755,0.03314209
0.13232422,-0.85357666,0.07220459
0.11254883,-0.8057251,0.059020996
0.076171875,-1.1758423,-0.18096924
-0.024414062,-0.9780884,-0.1416626
0.1315918,-1.036438,-0.1687622
-0.051757812,-1.0090942,-0.12017822
0.060302734,-0.9685669,-0.20611572
0.026611328,-0.9758911,-0.17437744
0.099609375,-0.928772,-0.14727783
0.011962891,-0.9656372,-0.14581299
0.23803711,-1.1380005,-0.08111572
-0.0029296875,-0.9612427,-0.1326294
0.32885742,-1.0293579,-0.0115356445
0.2697754,-1.0813599,-0.09844971
0.26782227,-0.94415283,-0.011291504
0.15771484,-0.83135986,0.028015137
0.1237793,-0.8406372,0.038024902
0.087402344,-0.87164307,0.097351074
0.31835938,-1.4793091,-0.3814087
-0.16894531,-0.6445923,-0.06304932
0.21899414,-1.0447388,-0.21661377
-0.15209961,-1.0144653,-0.1428833
0.1184082,-0.9534302,-0.15826416
0.0078125,-1.0007935,-0.13311768
0.11352539,-0.9170532,-0.047668457
0.06591797,-0.99298096,-0.14019775
0.16210938,-1.0125122,-0.08746338
0.18847656,-0.9751587,-0.113098145
-0.17578125,-1.083313,-0.23492432
0.02758789,-1.0059204,-0.18902588
-0.0007324219,-0.91900635,-0.15362549
0.099853516,-0.866272,-0.1350708
0.13745117,-0.90753174,-0.059387207
-0.059814453,-1.5549927,-0.038391113
0.38452148,-0.8189087,-0.03668213
0.15551758,-1.1482544,-0.008850098
0.14672852,-0.83428955,0.06781006
0.103027344,-0.7241821,0.08294678
0.110839844,-0.9973755,-0.04840088
0.16259766,-1.1792603,-0.08282471
0.07763672,-0.9963989,-0.14190674
0.09472656,-1.0274048,-0.18145752
-0.048339844,-0.9768677,-0.11383057
0.02709961,-0.9373169,-0.12335205
-0.017822266,-1.0169067,-0.10211182
0.018310547,-0.92266846,-0.10601807
0.07080078,-1.0320435,-0.07501221
0.27490234,-0.92144775,0.08538818
0.24609375,-1.0032349,-0.12896729
0.21142578,-1.0908813,-0.0056762695
0.203125,-0.82110596,0.008239746
0.07861328,-0.87677,0.009460449
0.10205078,-0.81036377,0.055114746
0.13574219,-1.4956665,-0.18927002
-0.072753906,-0.73443604,-0.032043457
0.22387695,-0.99468994,-0.22930908
-0.031982422,-1.0894165,-0.1663208
0.028564453,-0.9446411,-0.12164307
-0.05053711,-0.9937134,-0.15631104
0.036132812,-0.9500122,-0.13140869
0.04296875,-0.96051025,-0.1663208
0.119628906,-0.86968994,-0.05206299
0.39916992,-1.0025024,0.15106201
0.27368164,-1.2539673,-0.08380127
0.23095703,-0.8887329,-0.013244629
0.1796875,-0.80841064,0.046081543
0.033935547,-0.72320557,0.05706787
0.09057617,-0.8484497,-0.0015258789
0.27294922,-1.342102,-0.09283447
0.11450195,-0.94659424,-0.04156494
0.095947266,-0.8569946,-0.20709229
0.03491211,-1.0315552,-0.16973877
-0.03515625,-0.9793091,-0.10772705
0.05810547,-0.98565674,-0.1807251
0.12915039,-0.97491455,-0.11920166
0.10986328,-0.8291626,-0.09527588
0.31567383,-0.9812622,0.04827881
0.1796875,-1.2844849,-0.07525635
0.36132812,-0.8430786,0.0680542
0.17773438,-0.9529419,-0.035949707
0.09667969,-0.7214966,0.097351074
0.11767578,-1.1323853,-0.15167236
0.29760742,-1.1433716,0.0680542
0.084228516,-0.7505493,-0.09967041
0.20141602,-1.1028442,-0.22491455
-0.0146484375,-0.8999634,-0.17120361
0.0041503906,-1.0935669,-0.1453247
-0.012207031,-0.97320557,-0.13580322
-0.0053710938,-0.98394775,-0.11871338
0.06347656,-0.95147705,-0.11895752
-0.07470703,-0.94122314,-0.020080566
0.6376953,-0.9138794,0.047302246
0.13012695,-1.2593384,-0.14678955
0.30371094,-0.8689575,0.013366699
0.16259766,-0.74420166,0.049987793
0.12182617,-0.7654419,0.11810303
0.20288086,-1.3372192,-0.21636963
-0.21606445,-0.9282837,-0.043273926
0.28198242,-1.0027466,-0.1741333
-0.046875,-1.0271606,-0.16534424
0.09423828,-0.944397,-0.10015869
-0.02734375,-1.0357056,-0.15802002
0.06323242,-1.0154419,-0.124572754
0.030273438,-0.95635986,-0.13873291
0.09106445,-0.8406372,-0.10284424
0.16674805,-0.8948364,0.024353027
0.079833984,-1.3831177,-0.07305908
0.37670898,-0.98394775,-0.004699707
0.19262695,-0.93292236,-0.019836426
0.063964844,-0.7112427,-0.00592041
0.114746094,-0.8106079,0.04925537
0.05126953,-1.0430298,-0.15240479
0.6784668,-1.1802368,-0.25958252
-0.060058594,-0.97198486,-0.116760254
0.25317383,-0.8538208,-0.26324463
0.033691406,-0.95318604,-0.14801025
-0.01171875,-1.0039673,-0.15533447
0.0146484375,-0.9729614,-0.15167236
0.11425781,-1.3848267,-0.39434814
-0.0793457,-0.90460205,0.007751465
0.22583008,-0.91363525,-0.29986572
0.011474609,-1.0962524,-0.23150635
0.036865234,-0.91241455,-0.20147705
0.016601562,-0.97247314,-0.22857666
0.030273438,-0.93634033,-0.22808838
0.049804688,-0.90582275,-0.14630127
0.2619629,-0.7918091,-0.11578369
0.2524414,-1.1790161,-0.14215088
0.15405273,-1.1275024,-0.16241455
0.28979492,-0.86260986,-0.054992676
0.19946289,-0.8057251,-0.011291504
0.16210938,-0.7263794,0.008728027
0.051757812,-0.9578247,0.04046631
0.65185547,-1.3606567,-0.2341919
-0.057861328,-0.64971924,-0.011047363
0.1730957,-0.92559814,-0.30670166
-0.07885742,-1.0213013,-0.14361572
0.028076172,-1.0098267,-0.19976807
0.021972656,-0.9793091,-0.16485596
0.038085938,-0.9793091,-0.12701416
0.030029297,-0.9234009,-0.1338501
0.2824707,-1.1570435,0.046325684
0.21459961,-1.0059204,-0.13604736
0.1940918,-1.0510864,-0.008117676
0.3383789,-0.9768677,-0.028381348
0.16088867,-0.93951416,0.0060424805
0.15600586,-0.79034424,0.030456543
0.061767578,-0.79156494,0.06121826
0.47875977,-1.312561,-0.28131104
-0.099365234,-0.86187744,-0.105041504
0.20947266,-0.96832275,-0.22467041
-0.015380859,-1.0293579,-0.16070557
0.018310547,-0.9602661,-0.18829346
0.08666992,-1.0076294,-0.13800049
0.0009765625,-0.9741821,-0.14849854
0.11303711,-0.8748169,-0.08770752
0.40234375,-0.9319458,0.026794434
0.3112793,-1.206604,-0.11065674
0.26635742,-0.9741821,-0.019592285
0.30395508,-0.8328247,-0.03668213
0.16040039,-0.8882446,0.015808105
0.1484375,-0.8584595,0.066833496
0.12890625,-0.8579712,0.0028686523
0.421875,-1.2268677,-0.06011963
0.008056641,-0.8101196,-0.09991455
0.17993164,-1.0205688,-0.12701416
-0.024414062,-0.96759033,-0.09259033
0.020507812,-0.95391846,-0.12579346
0.07885742,-0.9624634,-0.11383057
0.04638672,-0.9944458,-0.10064697
0.05810547,-0.9846802,-0.05255127
0.26416016,-1.0706177,-0.008361816
0.34814453,-0.9993286,-0.14898682
0.23144531,-1.1113892,-0.07330322
0.3034668,-0.9741821,-0.07232666
0.14453125,-0.82598877,0.021911621
0.1394043,-0.7461548,-0.0029907227
0.12402344,-1.0408325,-0.15142822
0.30151367,-1.2300415,-0.16265869
0.119140625,-1.0025024,-0.22198486
0.084228516,-0.92974854,-0.21514893
-0.00024414062,-0.9614868,-0.20098877
0.06201172,-0.9854126,-0.23760986
0.045166016,-0.97369385,-0.175354
0.084472656,-0.91778564,-0.13775635
0.075927734,-0.927063,-0.23248291
0.42993164,-1.052063,-0.09576416
0.19506836,-1.0784302,-0.22735596
0.35986328,-1.1101685,-0.077697754
0.26171875,-0.8164673,-0.039367676
0.15600586,-0.7991333,-0.0076293945
0.05883789,-0.8501587,0.0099487305
0.09790039,-1.0149536,-0.26226807
0.2614746,-1.1243286,-0.124816895
-0.040283203,-1.0403442,-0.128479
0.1628418,-0.92633057,-0.24371338
0.026611328,-0.8970337,-0.1453247
0.030029297,-0.9763794,-0.18658447
0.06665039,-0.97003174,-0.16925049
0.059814453,-0.9475708,-0.13970947
0.16455078,-0.8635864,-0.16534424
0.14770508,-1.1748657,-0.097473145
0.16674805,-0.9763794,-0.17584229
0.32373047,-1.0696411,-0.07354736
0.22827148,-0.8609009,-0.06109619
0.14624023,-0.90509033,-0.034484863
0.08227539,-0.7715454,0.0038452148
-0.043945312,-1.1377563,-0.1585083
0.18481445,-1.1304321,-0.15924072
-0.011962891,-1.0137329,-0.18927002
0.017822266,-0.9710083,-0.20196533
-0.024902344,-0.944397,-0.17193604
-0.011962891,-0.9680786,-0.19122314
0.011962891,-0.9505005,-0.15753174
0.020019531,-0.9968872,-0.1560669
0.008544922,-0.9976196,-0.12017822
0.49169922,-0.82159424,-0.05718994
0.19311523,-1.053772,-0.14361572
0.30322266,-1.0752563,-0.06890869
0.24487305,-0.89434814,-0.070129395
0.12963867,-0.7810669,-0.0020141602
0.1015625,-0.817688,0.047302246
0.18408203,-1.4268188,-0.18341064
-0.14941406,-0.81085205,-0.013000488
0.118652344,-0.95562744,-0.17437744
0.018798828,-1.0449829,-0.20733643
0.040039062,-0.99591064,-0.07110596
-0.014160156,-0.9817505,-0.1350708
-0.0014648438,-0.98687744,-0.13189697
0.0007324219,-0.98809814,-0.078430176
0.00390625,-0.98687744,-0.04864502
0.2043457,-0.9924927,-0.032043457
0.11376953,-1.1338501,-0.04498291
0.22509766,-0.97613525,-0.027893066
0.15551758,-0.87164307,-0.0022583008
0.15893555,-0.8882446,0.014831543
0.13549805,-0.98321533,0.05657959
0.099365234,-1.0679321,-0.09039307
0.19067383,-0.9998169,-0.0569458
0.12231445,-0.9456177,-0.20831299
0.10058594,-1.0025024,-0.17901611
0.051757812,-1.0044556,-0.13433838
-0.0073242188,-0.9614868,-0.16070557
0.0029296875,-0.9710083,-0.14703369
-0.0007324219,-0.99298096,-0.1350708
0.0048828125,-0.9949341,-0.120910645
0.025146484,-0.9741821,-0.105041504
0.14428711,-1.0020142,-0.18707275
0.14453125,-1.0652466,-0.18658447
0.3088379,-1.0352173,-0.046447754
0.30664062,-1.0567017,-0.0725708
0.17407227,-0.80718994,-0.026428223
0.10131836,-0.78253174,0.0138549805
0.088378906,-1.1350708,-0.18585205
0.09350586,-1.1057739,-0.16363525
0.0637207,-1.0393677,-0.062316895
0.06591797,-0.9163208,-0.23614502
0.0009765625,-0.987854,-0.11187744
-0.036132812,-0.98760986,-0.17633057
0.0056152344,-1.0066528,-0.15167236
0.0034179688,-0.9607544,-0.11602783
0.024414062,-0.9807739,-0.10992432
0.16625977,-0.7263794,-0.06842041
0.2866211,-1.3113403,-0.16241455
-0.0703125,-1.1868286,-0.17828369
0.3972168,-0.95928955,0.03363037
0.23144531,-0.6814575,-0.039611816
0.15258789,-0.8491821,-0.003967285
0.12011719,-1.0427856,0.054382324
0.099609375,-0.9819946,-0.06719971
0.13769531,-1.1411743,-0.11993408
0.12866211,-0.8760376,-0.20587158
0.0390625,-1.0994263,-0.16363525
-0.0041503906,-0.94610596,-0.14337158
-0.012451172,-0.9998169,-0.12823486
-0.0024414062,-0.97003174,-0.11651611
0.04638672,-1.022522,-0.05718994
-0.0107421875,-0.93878174,-0.06549072
0.019042969,-0.9348755,-0.011291504
0.2175293,-1.0735474,0.06072998
0.24023438,-0.9260864,-0.12579346
0.19165039,-1.0078735,-0.0413208
0.21386719,-0.9055786,0.002380371
0.1274414,-0.91192627,0.049743652
0.11035156,-0.9265747,0.086364746
0.061035156,-0.81451416,-0.050109863
0.49926758,-1.3113403,-0.25982666
-0.123535156,-1.024231,-0.097961426
0.08886719,-1.0132446,-0.17095947
-0.0041503906,-0.92071533,-0.15655518
-0.032958984,-0.97247314,-0.16729736
-0.010986328,-1.0674438,-0.09893799
0.053222656,-1.0110474,-0.010803223
