accelX,accelY,accelZ
-0.075683594,-0.9751587,-0.013244629
-0.091796875,-0.9734497,-0.036193848
-0.1328125,-0.99005127,-0.06549072
-0.11767578,-1.031311,-0.030578613
-0.11376953,-1.0105591,-0.0025024414
-0.15527344,-0.9651489,0.024597168
-0.1652832,-0.9902954,0.031677246
-0.18334961,-0.97052,0.0038452148
-0.21899414,-0.987854,0.0138549805
-0.18847656,-1.0137329,0.023620605
-0.17529297,-1.008606,-0.003967285
-0.09033203,-0.94488525,0.03387451
-0.15161133,-1.0154419,0.030456543
-0.046875,-0.9819946,0.001159668
-0.034423828,-0.9805298,0.09222412
-0.017578125,-1.0169067,0.10736084
-0.0063476562,-1.0535278,0.08099365
0.0009765625,-0.9866333,0.070495605
0.008056641,-0.98565674,0.09295654
-0.0034179688,-0.9390259,0.062194824
-0.044189453,-0.9619751,0.04901123
-0.018066406,-1.0830688,-0.028137207
-0.15917969,-0.9729614,-0.03741455
-0.06958008,-0.9783325,-0.0134887695
-0.099853516,-0.9795532,-0.07745361
-0.15014648,-0.95440674,-0.049865723
-0.13232422,-1.000061,-0.026428223
-0.2019043,-1.0320435,-0.047668457
-0.16699219,-1.0237427,-0.0068969727
-0.2109375,-0.9727173,-0.025939941
-0.23022461,-0.95562744,-0.049865723
-0.2529297,-0.9866333,-0.039367676
-0.2446289,-0.9824829,-0.011047363
-0.22998047,-0.97906494,0.0053100586
-0.2084961,-0.991272,0.024108887
-0.15307617,-0.97003174,0.061462402
-0.07543945,-0.97320557,0.06732178
-0.052246094,-0.9829712,0.12738037
-0.052001953,-1.008606,0.09466553
-0.044677734,-0.9812622,0.08123779
-0.08154297,-1.0049438,0.06536865
-0.08129883,-1.0005493,0.08270264
-0.021240234,-1.0093384,0.08880615
0.048583984,-0.973938,0.09588623
0.009521484,-0.9607544,0.1473999
-0.04321289,-1.0291138,0.024108887
-0.09326172,-0.9338989,-0.007873535
-0.13671875,-0.93756104,-0.03741455
-0.18115234,-1.0435181,-0.07940674
-0.17700195,-1.0151978,-0.047912598
-0.20214844,-1.0149536,-0.03741455
-0.22070312,-0.97320557,-0.053527832
-0.21582031,-0.9751587,-0.02154541
-0.19311523,-0.97003174,0.021911621
-0.19970703,-0.9578247,0.0038452148
-0.19433594,-1.0159302,0.0065307617
-0.16577148,-0.9981079,0.014343262
-0.103027344,-0.94781494,0.034606934
-0.036132812,-0.9993286,0.05340576
-0.047851562,-1.0657349,0.039245605
-0.040527344,-1.0127563,0.082214355
-0.021728516,-1.0081177,0.11883545
0.0012207031,-0.9673462,0.10296631
-0.0012207031,-0.9944458,0.10443115
-0.001953125,-0.9631958,0.09320068
0.02758789,-0.95928955,0.097839355
0.021972656,-1.015686,0.090026855
-0.01977539,-0.9710083,0.08782959
-0.02758789,-1.0115356,0.073913574
-0.05810547,-0.98028564,0.02557373
-0.11206055,-0.954895,0.036071777
-0.12573242,-0.9890747,-0.014709473
-0.1303711,-1.0132446,0.014099121
-0.17504883,-1.0278931,0.011169434
-0.21704102,-0.9932251,0.038513184
-0.23461914,-0.9763794,-0.0005493164
-0.20385742,-0.97735596,0.035095215
-0.21850586,-0.98687744,0.024597168
-0.20825195,-0.99005127,0.039978027
-0.18334961,-0.9685669,0.038024902
-0.21459961,-0.99053955,0.04144287
-0.072509766,-1.0007935,0.06048584
-0.05834961,-0.9348755,0.04119873
-0.03881836,-1.0508423,0.030212402
-0.06982422,-1.0471802,0.06341553
-0.052001953,-0.98760986,0.08294678
-0.04345703,-0.99102783,0.05218506
-0.04736328,-0.989563,0.057556152
-0.04272461,-0.975647,0.082214355
-0.068603516,-0.9404907,0.07611084
-0.044921875,-1.0374146,0.055114746
-0.03881836,-0.9590454,0.019470215
-0.12036133,-0.9834595,-0.012756348
-0.11694336,-0.96417236,-0.023986816
-0.13012695,-0.97320557,-0.040100098
-0.19750977,-1.0095825,-0.054504395
-0.18334961,-1.0203247,-0.0413208
-0.19482422,-1.0005493,-0.0049438477
-0.2097168,-1.0154419,-0.05987549
-0.24389648,-0.98150635,-0.00982666
-0.28808594,-0.96832275,-0.016906738
-0.25268555,-0.9763794,0.0053100586
-0.23022461,-0.95880127,-0.0049438477
-0.13208008,-1.0132446,0.0065307617
-0.11254883,-0.9795532,0.0016479492
-0.05908203,-0.9644165,0.06976318
-0.055419922,-0.9885864,0.08026123
-0.030517578,-1.006897,0.042419434
-0.017089844,-1.0374146,0.090026855
-0.053955078,-0.972229,0.08148193
-0.07373047,-0.95635986,0.082458496
-0.07299805,-0.9734497,0.0927124
-0.04711914,-1.0701294,0.027038574
-0.099365234,-0.91534424,0.010681152
-0.056884766,-1.0552368,0.061950684
-0.09008789,-0.96588135,0.05999756
-0.12890625,-0.972229,0.050476074
-0.19165039,-0.97198486,0.014587402
-0.19433594,-1.041565,0.05657959
-0.21679688,-0.9866333,0.04486084
-0.21264648,-0.96539307,0.022644043
-0.24584961,-0.96759033,0.03314209
-0.2548828,-0.9614868,0.039489746
-0.22998047,-0.9780884,0.022399902
-0.24804688,-0.9819946,0.05218506
-0.26098633,-1.0144653,0.03387451
-0.15356445,-0.960022,0.032165527
-0.1875,-0.9746704,0.0368042
-0.123535156,-1.024231,0.0045776367
-0.044921875,-0.9885864,0.06097412
-0.009033203,-0.98150635,0.07904053
-0.0048828125,-1.0054321,0.04510498
-0.041503906,-1.0127563,0.043884277
-0.010986328,-1.0093384,0.06561279
0.012451172,-0.9612427,0.06317139
-0.017822266,-0.97198486,0.06488037
0.0014648438,-1.022522,0.0040893555
-0.040527344,-1.0195923,0.008972168
-0.0925293,-0.96099854,-0.0076293945
-0.13623047,-0.99005127,-0.026916504
-0.12719727,-0.9727173,-0.024230957
-0.23071289,-0.9819946,0.010925293
-0.24316406,-0.9993286,0.0053100586
-0.22631836,-0.9873657,0.046813965
-0.28393555,-0.9873657,0.05316162
-0.24267578,-0.97320557,0.031433105
-0.27172852,-0.99176025,0.05633545
-0.26220703,-0.9170532,0.03704834
-0.28833008,-0.9690552,0.05291748
-0.26293945,-1.0579224,0.024597168
-0.24902344,-0.9529419,0.053649902
-0.1772461,-0.96099854,-0.042053223
-0.1772461,-0.9871216,0.007751465
-0.119628906,-0.956604,-0.010070801
-0.1472168,-1.0110474,0.029724121
-0.0859375,-1.0108032,0.04168701
-0.06958008,-1.0044556,0.046569824
-0.072021484,-1.0095825,0.08074951
-0.049804688,-0.9834595,0.055114746
-0.055419922,-0.97906494,0.07147217
-0.029052734,-0.99542236,0.046569824
-0.06347656,-0.9776001,0.09588623
-0.0690918,-0.98150635,0.10369873
-0.052001953,-1.0100708,0.047058105
-0.061035156,-0.96051025,0.02923584
-0.13745117,-0.97369385,0.0079956055
-0.15893555,-0.9595337,-0.049621582
-0.16259766,-1.0305786,-0.016418457
-0.20581055,-1.0342407,-0.0071411133
-0.17138672,-0.9795532,-0.006652832
-0.2121582,-0.9780884,-6.1035156e-05
-0.22851562,-0.975647,0.016784668
-0.20532227,-0.9854126,-0.02130127
-0.24023438,-0.9546509,-0.0335083
-0.24023438,-0.98028564,-0.054992676
-0.2446289,-1.0027466,-0.055725098
-0.20678711,-0.9961548,-0.02154541
-0.16845703,-0.97003174,-0.012756348
-0.09692383,-0.96881104,-0.024963379
-0.104003906,-0.9890747,0.015808105
-0.043945312,-1.0029907,0.00091552734
0.022216797,-1.0474243,0.00579834
-0.032714844,-0.99005127,0.003112793
-0.00390625,-0.9885864,-0.004699707
-0.040283203,-0.9795532,0.03704834
-0.015380859,-0.9614868,0.027770996
-0.026611328,-0.9644165,0.027770996
0.00048828125,-1.0134888,0.01361084
-0.00390625,-1.0095825,0.025817871
-0.026123047,-0.98687744,0.0065307617
-0.061279297,-0.98443604,-0.02130127
-0.07104492,-1.0059204,-0.010803223
-0.16625977,-0.93585205,-0.05255127
-0.12451172,-1.0300903,-0.073791504
-0.19189453,-0.98883057,-0.06890869
-0.1694336,-0.9768677,-0.036193848
-0.17236328,-0.96661377,-0.03717041
-0.19458008,-0.98516846,-0.050598145
-0.20825195,-0.9680786,-0.073791504
-0.2211914,-0.9483032,-0.07330322
-0.2109375,-0.99346924,-0.07965088
-0.19091797,-0.9812622,-0.07672119
-0.15209961,-0.989563,-0.09112549
-0.118896484,-0.9939575,-0.05987549
-0.048095703,-0.98931885,-0.044006348
-0.040039062,-1.0037231,-0.023010254
-0.02319336,-1.0195923,-0.013977051
-0.015380859,-1.0090942,-0.016418457
0.012207031,-1.0020142,-0.012756348
-0.026611328,-0.96466064,-0.0049438477
-0.01928711,-0.9805298,-0.006652832
0.033203125,-1.0032349,-0.046203613
-0.02758789,-0.9968872,-0.08135986
-0.0017089844,-0.9378052,-0.07696533
-0.07519531,-0.9968872,-0.1026001
-0.14453125,-0.96954346,-0.13116455
-0.16113281,-1.0066528,-0.124816895
-0.19628906,-1.0222778,-0.11480713
-0.19921875,-0.9624634,-0.09503174
-0.21508789,-0.9834595,-0.09674072
-0.21850586,-0.9607544,-0.097473145
-0.22070312,-0.9480591,-0.082336426
-0.24926758,-0.9841919,-0.08306885
-0.19995117,-0.98394775,-0.06866455
-0.21508789,-0.97735596,-0.07965088
-0.1315918,-0.9619751,-0.031066895
-0.125,-1.0432739,-0.02935791
-0.042236328,-1.0039673,-0.009338379
-0.076660156,-1.0110474,-0.0015258789
-0.056396484,-0.9915161,0.011413574
-0.033691406,-0.9541626,0.017028809
-0.04711914,-0.98638916,0.051696777
-0.023925781,-1.0083618,0.03314209
-0.03881836,-0.97857666,0.024841309
-0.024169922,-1.0025024,0.007019043
-0.02758789,-1.019104,0.014099121
-0.045166016,-0.9631958,-0.013000488
-0.05834961,-0.98760986,-0.07476807
-0.14501953,-0.9819946,-0.09039307
-0.15820312,-0.9829712,-0.109436035
-0.17578125,-1.0147095,-0.10040283
-0.19189453,-1.0198364,-0.03717041
-0.20996094,-0.9990845,-0.038635254
-0.2199707,-0.958313,-0.03643799
-0.22802734,-0.93951416,0.0079956055
-0.23022461,-0.9512329,-0.010314941
-0.14282227,-1.0361938,0.005554199
-0.16674805,-0.9356079,-6.1035156e-05
-0.022460938,-0.98321533,-0.018371582
-0.006591797,-0.99298096,-0.03643799
-0.030029297,-1.029602,-0.06109619
-0.024658203,-1.0203247,-0.032043457
-0.04736328,-1.0095825,0.008972168
-0.067871094,-0.96881104,0.008483887
-0.041748047,-1.0171509,0.038024902
-0.011230469,-0.9727173,0.034606934
0.010498047,-0.9993286,0.01776123
0.01928711,-1.0029907,0.014343262
0.014892578,-0.99713135,0.042175293
-0.00390625,-0.987854,0.050231934
-0.008300781,-0.9483032,0.012390137
-0.08227539,-1.0049438,-0.062072754
-0.10473633,-0.9788208,-0.024719238
-0.13916016,-0.99298096,-0.0413208
-0.15161133,-0.99835205,-0.034484863
-0.15820312,-1.0371704,-0.016906738
-0.20727539,-0.9714966,-0.020812988
-0.17138672,-1.0071411,-0.0044555664
-0.20361328,-0.97979736,0.00091552734
-0.17822266,-0.99713135,0.012634277
-0.18359375,-1.0454712,0.016296387
-0.07885742,-0.942688,-0.0022583008
-0.044189453,-0.991272,0.008239746
-0.010498047,-1.0042114,-0.0049438477
0.0053710938,-1.0108032,0.0446167
-0.072753906,-1.0508423,0.03753662
-0.053710938,-0.97857666,0.05609131
-0.03564453,-0.9385376,0.047790527
0.032714844,-1.0061646,0.06878662
-0.0041503906,-1.0298462,0.051696777
0.010253906,-0.96832275,0.06561279
0.010009766,-0.99884033,0.045837402
0.0146484375,-1.0176392,0.027526855
0.009521484,-0.99298096,0.035095215
-0.004638672,-0.9319458,0.0026245117
-0.072021484,-0.9859009,-0.05645752
-0.11694336,-1.0003052,-0.085998535
-0.1640625,-1.0044556,-0.07281494
-0.13110352,-1.0025024,-0.044006348
-0.12036133,-0.9866333,-0.046691895
-0.17773438,-0.9883423,-0.06573486
-0.16235352,-0.9817505,-0.09063721
-0.14379883,-0.96954346,-0.08062744
-0.140625,-1.0029907,-0.08306885
-0.080566406,-1.041565,-0.0491333
-0.19116211,-0.9326782,-0.13189697
0.099853516,-1.0317993,-0.030334473
0.025390625,-0.97784424,-0.0569458
0.03491211,-1.0122681,-0.019836426
0.03540039,-1.0144653,0.0014038086
0.013183594,-0.99224854,0.02142334
0.016357422,-0.96539307,0.015563965
0.015625,-1.000061,0.026794434
0.013427734,-0.97979736,0.038757324
0.007080078,-1.0032349,0.0021362305
-0.057128906,-1.034729,0.01751709
-0.09106445,-0.94488525,-0.015930176
-0.1484375,-0.97784424,-0.057678223
-0.15600586,-0.97735596,-0.05279541
-0.24609375,-1.0205688,-0.046691895
-0.23901367,-0.95928955,-0.06964111
-0.21972656,-0.98150635,-0.026916504
-0.24536133,-0.98272705,-0.047668457
-0.26293945,-0.95025635,-0.044006348
-0.24169922,-0.9702759,-0.028137207
-0.25073242,-0.97540283,-0.053527832
-0.19189453,-0.99468994,-0.0095825195
-0.1586914,-0.9380493,-0.03253174
-0.1796875,-1.0025024,-0.0010375977
-0.095458984,-1.0042114,0.035095215
-0.033691406,-0.9915161,0.03338623
-0.0063476562,-1.0291138,0.04046631
-0.06713867,-1.0039673,0.04071045
-0.0625,-0.98638916,0.021911621
-0.04663086,-0.99102783,0.042175293
-0.031982422,-0.9819946,0.062683105
-0.029785156,-0.9668579,0.0680542
0.011474609,-1.0386353,0.03753662
-0.11816406,-1.0032349,0.021911621
-0.072753906,-0.96759033,0.031921387
-0.13378906,-0.9951782,0.009216309
-0.21972656,-0.9258423,-0.03277588
-0.16748047,-1.0200806,-0.0068969727
-0.22265625,-1.0073853,-0.015197754
-0.22143555,-0.9685669,-0.009338379
-0.24829102,-0.9800415,0.006286621
-0.25512695,-0.9627075,-0.032043457
-0.25195312,-0.9776001,-0.013000488
-0.24902344,-0.9944458,-0.014709473
-0.22338867,-0.99542236,-0.025939941
-0.18530273,-0.9837036,-0.010070801
-0.1706543,-0.9788208,-0.0051879883
-0.10571289,-0.9612427,-0.006164551
-0.055908203,-1.003479,0.022888184
-0.053955078,-0.9973755,0.028259277
-0.08129883,-1.0430298,0.09832764
-0.021240234,-0.99298096,0.04901123
-0.05126953,-0.9824829,0.07098389
-0.067871094,-0.9746704,0.09564209
0.0043945312,-0.97003174,0.11151123
-0.022460938,-1.0108032,0.11248779
-0.028564453,-0.9570923,0.057556152
-0.061279297,-0.99713135,0.058044434
-0.09057617,-0.95147705,0.03338623
-0.14868164,-0.9678345,-0.09576416
-0.15698242,-1.0410767,-0.10650635
-0.12719727,-1.0071411,-0.09185791
-0.16381836,-0.9729614,-0.09649658
-0.19995117,-0.9702759,-0.09234619
-0.21264648,-0.9956665,-0.10357666
-0.22583008,-0.95977783,-0.093322754
-0.21582031,-0.9678345,-0.07745361
-0.20996094,-0.99591064,-0.10211182
-0.2253418,-0.99053955,-0.09259033
-0.20361328,-0.97198486,-0.06402588
-0.140625,-0.9805298,-0.051818848
-0.12939453,-0.9898071,-0.037902832
-0.07397461,-0.98150635,-0.023742676
-0.078125,-1.0181274,-0.00592041
-0.03466797,-1.015686,-0.018615723
-0.049804688,-0.97442627,-0.019104004
-0.076660156,-0.9714966,0.026306152
-0.009521484,-0.9956665,0.0045776367
0.025390625,-0.9890747,0.014587402
-0.00048828125,-1.003479,0.015075684
