accelX,accelY,accelZ
-0.2241211,-1.0681763,0.12347412
-0.16040039,-0.9644165,0.08831787
-0.10253906,-0.88482666,0.09051514
-0.2722168,-0.8521118,0.058288574
-0.00390625,-1.1724243,-0.16851807
-0.2529297,-1.1008911,-0.093811035
-0.1328125,-0.9710083,-0.17462158
-0.21972656,-0.9558716,-0.1795044
-0.125,-1.0359497,-0.12750244
-0.16918945,-1.0635376,0.06976318
0.045898438,-1.046936,-0.0134887695
0.111328125,-0.91192627,0.012390137
0.091796875,-0.8609009,0.053894043
0.06591797,-0.87506104,0.06829834
-0.08569336,-0.93951416,0.07684326
-0.32763672,-0.9246216,-0.31085205
0.051757812,-1.1929321,-0.11480713
-0.14550781,-1.0508423,-0.13165283
-0.1940918,-0.98760986,-0.19927979
-0.18432617,-0.93341064,-0.18463135
-0.15283203,-0.99884033,-0.15997314
-0.119140625,-1.0110474,-0.11090088
-0.00024414062,-0.9678345,-0.07623291
0.103515625,-0.84869385,0.02557373
0.068359375,-1.0142212,0.030212402
0.016845703,-0.8909302,0.03753662
-0.12719727,-0.90045166,0.13323975
-0.14892578,-1.3008423,-0.4343872
-0.2446289,-1.0979614,-0.02178955
-0.043701172,-0.9060669,-0.20343018
-0.24194336,-1.0969849,-0.20269775
-0.02734375,-1.0339966,-0.10992432
-0.10839844,-0.95928955,0.01727295
0.024414062,-1.02594,0.031188965
0.040039062,-0.9055786,0.032165527
-0.050048828,-0.89727783,0.031921387
-0.13574219,-0.9612427,0.10101318
-0.11816406,-1.3442993,-0.24224854
-0.23413086,-0.99346924,-0.124816895
-0.119140625,-1.038147,-0.17071533
-0.25683594,-0.93096924,-0.175354
-0.18725586,-1.0059204,-0.18902588
-0.19555664,-0.95758057,-0.070617676
0.0146484375,-1.0623169,-0.016662598
-0.10571289,-1.0471802,0.014343262
0.015380859,-0.97662354,0.10687256
-0.09838867,-0.87042236,0.078552246
-0.09863281,-0.8899536,0.11859131
-0.27197266,-0.9397583,-0.21173096
0.005126953,-0.9846802,-0.26519775
-0.13867188,-1.2180786,-0.2107544
-0.22558594,-1.0269165,-0.20196533
-0.11230469,-0.91656494,-0.27349854
0.0041503906,-0.9614868,-0.27496338
-0.020263672,-1.2546997,-0.23980713
0.18115234,-0.8364868,-0.21929932
0.09106445,-1.0012817,-0.06573486
0.13452148,-0.89068604,-0.024230957
0.10058594,-0.8098755,-0.003967285
-0.05493164,-0.96832275,0.1005249
0.14550781,-1.1963501,-0.4048462
-0.20117188,-1.2012329,-0.21539307
-0.03930664,-0.89068604,-0.25421143
-0.15454102,-0.8381958,-0.26739502
-0.15161133,-1.0610962,-0.23175049
-0.041992188,-0.91241455,-0.20465088
-0.037597656,-1.1831665,-0.1609497
0.23510742,-0.82159424,-0.13897705
0.044433594,-1.0374146,-0.074035645
0.12646484,-0.9295044,-0.026672363
0.047607422,-0.8982544,0.019714355
0.012451172,-0.99102783,-0.01373291
-0.15551758,-1.1587524,-0.35699463
-0.11743164,-1.036438,-0.19586182
-0.033935547,-0.95880127,-0.26861572
-0.1706543,-0.9439087,-0.29083252
-0.06225586,-0.9404907,-0.24957275
0.013183594,-0.95880127,-0.23834229
-0.033935547,-1.0303345,-0.14508057
0.10058594,-0.84576416,-0.2444458
0.10546875,-1.0042114,-0.065979004
0.15429688,-0.89801025,-0.020080566
0.022460938,-0.86920166,0.038269043
-0.06298828,-0.9312134,0.027282715
0.15649414,-1.2359009,-0.3399048
-0.20800781,-1.0789185,-0.25054932
-0.02734375,-1.005188,-0.2420044
-0.18286133,-0.8543091,-0.2781372
-0.16186523,-0.9998169,-0.1963501
-0.07861328,-0.8179321,-0.2354126
0.0036621094,-1.1541138,-0.04083252
0.26708984,-0.9456177,-0.1182251
0.08178711,-1.1011353,-0.03326416
0.11376953,-0.8977661,-0.043762207
0.06542969,-0.8098755,-0.013977051
-0.068359375,-0.8225708,0.0368042
-0.09863281,-1.1155396,-0.49884033
-0.25683594,-1.2861938,-0.09820557
-0.011474609,-0.8921509,-0.20635986
-0.20336914,-0.9651489,-0.25811768
-0.122802734,-0.93096924,-0.20880127
-0.06982422,-0.9414673,-0.20855713
-0.072509766,-1.1238403,-0.25079346
0.25390625,-0.88897705,-0.21221924
-0.038330078,-1.1174927,-0.061828613
0.09033203,-0.9456177,0.014099121
0.05029297,-0.8362427,0.040222168
-0.040771484,-0.9194946,0.043884277
-0.23828125,-0.89508057,-0.3279419
0.011230469,-1.2317505,-0.07574463
-0.019042969,-0.9522095,-0.19390869
-0.2548828,-1.0493774,-0.21392822
-0.06591797,-0.8386841,-0.21881104
-0.09033203,-0.93951416,-0.19732666
0.013427734,-1.0545044,-0.30767822
0.26782227,-1.0706177,-0.29107666
-0.1171875,-0.8845825,-0.1729126
0.22949219,-1.0440063,-0.06524658
0.07836914,-0.8479614,-0.03326416
0.04711914,-0.9133911,0.0067749023
-0.14526367,-0.8779907,0.06536865
0.40576172,-1.1553345,-0.29718018
-0.22387695,-1.1416626,-0.1897583
-0.08203125,-0.9680786,-0.20855713
-0.13720703,-0.8206177,-0.22735596
-0.16235352,-1.0332642,-0.17120361
-0.07495117,-1.0232544,-0.105529785
-0.048095703,-1.0227661,0.0014038086
0.02734375,-1.0405884,-0.046203613
0.16113281,-0.9397583,-0.026184082
0.06567383,-0.87457275,0.019714355
-0.037109375,-0.88897705,0.046325684
-0.08105469,-0.92974854,0.07098389
0.17993164,-1.0984497,-0.2642212
-0.125,-1.1194458,-0.17706299
-0.11035156,-1.0464478,-0.18096924
-0.09472656,-0.82403564,-0.23223877
-0.075683594,-0.99102783,-0.18682861
-0.0847168,-0.97198486,-0.16778564
-0.053710938,-1.1948853,-0.058898926
0.16625977,-0.9224243,-0.028869629
0.1303711,-0.9475708,0.016296387
0.10864258,-0.92926025,0.018249512
0.04638672,-0.8862915,0.046569824
0.008056641,-0.90826416,0.058288574
-0.18530273,-1.1873169,-0.38848877
-0.15185547,-1.2185669,-0.13800049
0.0021972656,-0.9500122,-0.17144775
-0.15478516,-0.9404907,-0.19390869
-0.11376953,-0.9324341,-0.1609497
-0.053466797,-0.92437744,-0.16949463
-0.12524414,-1.1582642,-0.20831299
0.3227539,-0.93756104,-0.15997314
0.06225586,-1.0176392,-0.066711426
0.13745117,-0.9702759,-0.027404785
0.024902344,-0.82891846,0.044128418
0.018554688,-0.8364868,-0.0029907227
-0.25805664,-1.154602,-0.43511963
-0.087890625,-1.2070923,-0.09283447
0.07348633,-0.9168091,-0.20172119
-0.14379883,-1.0137329,-0.20562744
-0.057373047,-0.93707275,-0.190979
-0.10229492,-0.93927,-0.17706299
-0.026855469,-0.989563,-0.22271729
0.1821289,-0.9956665,-0.06866455
0.01977539,-0.9678345,-0.031555176
0.08691406,-1.0315552,0.039733887
0.07519531,-0.83721924,0.020446777
0.008300781,-0.90093994,0.00970459
-0.052001953,-0.98687744,0.0028686523
-0.0012207031,-0.99053955,-0.12310791
0.052734375,-1.005188,-0.22247314
-0.14990234,-1.0906372,-0.2630005
-0.06713867,-0.76226807,-0.21368408
-0.111083984,-0.9402466,-0.1831665
-0.13452148,-1.0271606,-0.17559814
-0.08666992,-1.145813,-0.07574463
0.109375,-0.8423462,-0.097473145
-0.06933594,-1.1104126,-0.0134887695
0.05883789,-0.925354,0.011657715
-0.036621094,-0.8743286,0.07537842
-0.03466797,-0.9019165,0.03387451
-0.22607422,-1.1411743,-0.18927002
-0.15356445,-0.9968872,-0.04840088
0.16235352,-0.93048096,-0.19049072
-0.27563477,-1.1743774,-0.1560669
-0.15454102,-0.8362427,-0.19317627
-0.12915039,-0.93951416,-0.16656494
-0.088134766,-0.9053345,-0.07330322
0.15893555,-1.3223267,0.06317139
-0.12817383,-0.861145,0.006286621
0.11816406,-0.95269775,0.02166748
-0.03100586,-0.91070557,0.04119873
-0.0068359375,-0.86724854,0.043395996
-0.1743164,-0.9273071,-0.0095825195
0.01586914,-1.0615845,-0.04840088
0.013671875,-0.9841919,-0.18511963
-0.23413086,-1.1624146,-0.12554932
-0.1340332,-0.8081665,-0.190979
-0.18334961,-0.9602661,-0.17340088
-0.06591797,-0.9678345,-0.09259033
-0.15991211,-1.2537231,-0.13140869
0.11816406,-0.83258057,-0.023254395
0.1328125,-1.0281372,-0.018859863
0.01953125,-0.9841919,0.020690918
-0.013427734,-0.8435669,0.012634277
-0.049072266,-0.9507446,0.08123779
-0.2055664,-1.1714478,-0.27374268
-0.21948242,-1.1157837,-0.159729
0.0012207031,-0.9849243,-0.20953369
-0.21044922,-1.0110474,-0.20831299
-0.1003418,-0.88482666,-0.23443604
-0.09301758,-0.91851807,-0.21905518
-0.06567383,-1.0217896,-0.14361572
0.043701172,-1.0586548,-0.030090332
-0.13842773,-0.99102783,0.005065918
0.087402344,-0.92852783,0.022644043
0.0041503906,-0.8447876,0.016052246
-0.0048828125,-0.9456177,0.061462402
-0.13110352,-0.93951416,0.10784912
0.10595703,-1.1621704,-0.12945557
-0.0690918,-0.9714966,-0.22784424
-0.13745117,-1.1397095,-0.15655518
-0.14453125,-0.76641846,-0.20880127
-0.13354492,-0.97540283,-0.16241455
-0.11254883,-0.9380493,-0.20465088
-0.123535156,-1.0947876,-0.27130127
0.13720703,-0.99053955,-0.050598145
-0.08325195,-1.0071411,-0.082336426
0.0949707,-0.9624634,-0.0076293945
-0.030029297,-0.85894775,0.046569824
-0.063964844,-0.96221924,0.031921387
-0.19555664,-0.95098877,-0.035461426
0.09814453,-1.1201782,-0.20318604
-0.041259766,-0.9536743,-0.24224854
-0.17089844,-1.1558228,-0.18927002
-0.13500977,-0.76934814,-0.25372314
-0.1665039,-0.958313,-0.19732666
-0.09326172,-0.9817505,-0.15460205
0.076171875,-1.1699829,-0.07476807
-0.0847168,-0.9951782,-0.101867676
0.09301758,-1.0164185,-0.03326416
-0.056640625,-0.85162354,-0.004699707
-0.04321289,-0.91412354,0.03704834
-0.095214844,-0.8677368,0.0836792
0.06518555,-1.3093872,-0.15679932
-0.080322266,-0.9480591,-0.22979736
-0.2265625,-1.1951294,-0.1765747
-0.13793945,-0.81085205,-0.20220947
-0.13330078,-0.95928955,-0.1716919
-0.06567383,-0.9216919,-0.12994385
-0.027832031,-1.2449341,-0.0154418945
-0.0703125,-0.95758057,0.0053100586
0.049072266,-0.98223877,0.0021362305
-0.0024414062,-0.88482666,0.047790527
-0.02758789,-0.86016846,0.029968262
-0.125,-0.9158325,0.090270996
0.099121094,-1.2886353,-0.27520752
-0.30029297,-1.081604,-0.19708252
-0.06762695,-1.1043091,-0.20123291
-0.15795898,-0.8032837,-0.2300415
-0.06347656,-1.0137329,-0.14996338
-0.08081055,-0.91534424,-0.19049072
-0.057861328,-1.1907349,-0.09185791
0.09033203,-0.89849854,0.0053100586
0.07373047,-1.0657349,0.024597168
0.043701172,-0.8596802,0.007019043
0.017089844,-0.8579712,0.07318115
-0.034179688,-0.89068604,0.0993042
-0.0073242188,-1.3479614,-0.36920166
-0.36376953,-1.1663208,-0.33111572
0.009521484,-1.1089478,-0.13580322
-0.16699219,-0.80133057,-0.2210083
-0.16479492,-0.9187622,-0.16705322
-0.088378906,-0.9470825,-0.20367432
-0.05102539,-1.0772095,-0.11798096
0.099365234,-0.9546509,-0.050354004
-0.15014648,-1.1734009,-0.06890869
0.016845703,-0.9273071,0.016784668
-0.034423828,-0.8526001,0.059753418
-0.041748047,-0.97369385,0.08831787
-0.18969727,-0.9224243,0.016052246
-0.044433594,-1.1777954,-0.10650635
-0.040039062,-1.0598755,-0.222229
-0.14331055,-1.0564575,-0.18707275
-0.122802734,-0.83428955,-0.23175049
-0.12060547,-0.9038696,-0.14923096
-0.107177734,-0.99005127,-0.10406494
0.00048828125,-1.038147,0.17596436
-0.15917969,-1.1167603,-0.015930176
0.07495117,-0.94073486,0.042419434
-0.010498047,-0.8755493,0.07147217
-0.03564453,-0.9338989,0.07611084
-0.13891602,-0.90460205,0.137146
0.0073242188,-1.1743774,-0.28448486
-0.15307617,-1.0755005,-0.21343994
-0.1550293,-1.0964966,-0.17340088
-0.17089844,-0.8110962,-0.21514893
-0.16552734,-0.975647,-0.17364502
-0.11767578,-0.91851807,-0.13433838
-0.14648438,-1.2766724,-0.14483643
0.16577148,-0.81573486,-0.020568848
-0.015625,-1.1365356,-0.0154418945
-0.026123047,-0.9915161,0.0040893555
-0.030517578,-0.83380127,0.0602417
-0.035888672,-0.92071533,0.082458496
-0.31591797,-1.0542603,-0.3418579
-0.17236328,-1.0969849,-0.05230713
-0.10644531,-1.0374146,-0.10675049
-0.26708984,-0.9216919,-0.15875244
-0.1328125,-0.9378052,-0.14971924
-0.1171875,-0.8731079,-0.13970947
-0.072021484,-1.194397,-0.26202393
0.17016602,-0.86846924,-0.05230713
0.023925781,-1.1148071,0.0036010742
-0.04638672,-0.9434204,0.046081543
-0.04321289,-0.8352661,0.08294678
-0.12182617,-0.92974854,0.17254639
0.040039062,-1.3313599,-0.3496704
-0.33203125,-1.1621704,-0.16168213
-0.020751953,-1.0015259,-0.17901611
-0.1965332,-0.8062134,-0.24884033
-0.13867188,-1.0088501,-0.14703369
-0.14648438,-0.89849854,-0.19464111
-0.072509766,-1.3291626,-0.07550049
-0.034179688,-0.8401489,-0.02545166
0.08203125,-1.0286255,-0.0068969727
-0.008056641,-0.84039307,0.032165527
-0.06201172,-0.89678955,0.050964355
-0.12890625,-0.9209595,0.06097412
0.028564453,-1.163147,-0.07354736
-0.029052734,-1.0488892,-0.17559814
-0.2602539,-1.0408325,-0.13970947
-0.08618164,-0.81695557,-0.16363525
-0.17749023,-0.9819946,-0.16656494
-0.11352539,-0.95977783,-0.24810791
0.22338867,-1.0283813,-0.04107666
-0.16259766,-1.1594849,-0.085510254
0.0390625,-1.0071411,0.022155762
-0.024414062,-0.7842407,0.050231934
-0.072509766,-0.91412354,0.032165527
-0.27172852,-1.0237427,-0.3682251
-0.23999023,-1.180481,-0.2029419
-0.040283203,-1.0620728,-0.18804932
-0.18603516,-0.9468384,-0.22052002
-0.107910156,-0.9077759,-0.17242432
-0.13232422,-0.8496704,-0.16851807
-0.048339844,-1.3425903,-0.1951294
0.0126953125,-0.85650635,-0.08306885
0.0859375,-1.0723267,-0.026428223
-0.029052734,-0.9246216,0.013366699
-0.0637207,-0.8452759,0.054626465
-0.11352539,-0.8320923,0.11590576
0.2939453,-1.4932251,-0.16900635
-0.36865234,-1.046936,-0.23760986
-0.22265625,-1.1245728,-0.13140869
-0.17993164,-0.76153564,-0.18389893
-0.20996094,-0.99884033,-0.11456299
-0.052001953,-0.8921509,-0.12677002
-0.03173828,-1.4072876,0.058532715
-0.080322266,-0.89801025,0.016784668
0.08276367,-0.9619751,0.043151855
-0.048583984,-0.8623657,0.05657959
-0.034179688,-0.8904419,0.06951904
-0.11694336,-0.909729,0.0836792
0.055908203,-1.185852,-0.29107666
-0.16625977,-1.062561,-0.19268799
-0.18823242,-1.0542603,-0.1741333
-0.16992188,-0.769104,-0.20098877
-0.15405273,-1.0015259,-0.17095947
-0.07495117,-0.9495239,-0.109436035
0.104003906,-1.0200806,0.047058105
-0.22192383,-1.2376099,0.0033569336
-0.03466797,-0.86553955,0.041931152
-0.051757812,-0.8015747,0.06878662
-0.08911133,-0.95562744,0.12689209
-0.34228516,-1.1755981,-0.27520752
-0.3527832,-1.0859985,-0.14385986
-0.100097656,-1.0791626,-0.070373535
-0.2084961,-0.82354736,-0.20831299
