accelX,accelY,accelZ
0.45874023,-0.9133911,0.11004639
0.15356445,-0.6499634,-0.05670166
0.5683594,-1.3303833,-0.42926025
0.12768555,-0.7505493,-0.24957275
0.087646484,-0.73516846,-0.16217041
0.18408203,-1.0112915,-0.3093872
0.8466797,-1.3223267,-0.18170166
0.27319336,-0.68829346,0.08123779
0.5187988,-0.8562622,-0.018615723
0.39404297,-0.8562622,0.022155762
0.2055664,-0.675354,-0.16217041
0.31079102,-1.3411255,-0.69415283
0.12060547,-0.6343384,-0.33966064
0.041748047,-0.956604,-0.36895752
0.2709961,-0.8892212,-0.39385986
0.3605957,-1.0181274,-0.43927002
0.3059082,-0.725647,-0.008117676
0.6750488,-0.94659424,-0.2390747
0.31567383,-0.76275635,-0.14874268
0.38720703,-0.7686157,-0.17926025
0.47607422,-1.1731567,-0.44561768
0.2331543,-0.6133423,-0.46929932
0.064208984,-1.0108032,-0.38580322
0.20581055,-0.73809814,-0.48468018
0.28979492,-0.94000244,-0.3484497
0.6191406,-1.218811,-0.13873291
0.23071289,-0.65704346,-0.11773682
0.56933594,-1.000061,-0.16973877
0.39868164,-0.7647095,-0.17730713
0.41577148,-0.7727661,-0.1272583
0.3852539,-1.1941528,-0.6182251
0.08886719,-0.6030884,-0.35235596
0.24414062,-0.91656494,-0.35357666
0.29614258,-0.83062744,-0.44659424
0.29248047,-0.8604126,-0.44293213
0.3334961,-0.8189087,-0.019348145
0.62109375,-0.83306885,-0.19732666
0.41479492,-0.8584595,-0.11773682
0.48510742,-0.7131958,-0.22052002
0.37158203,-0.866272,-0.19171143
0.30273438,-1.0254517,-0.57647705
0.23486328,-0.83673096,-0.33258057
0.091552734,-0.88726807,-0.4187622
0.22070312,-0.83428955,-0.38287354
0.28759766,-0.86920166,-0.3735962
0.81274414,-1.328186,-0.19781494
0.2746582,-0.6260376,0.010925293
0.5744629,-0.93341064,-0.16827393
0.42529297,-0.7576294,-0.0491333
0.31762695,-0.7649536,-0.20831299
0.3178711,-1.373352,-0.6843872
0.20239258,-0.58258057,-0.3460083
0.07324219,-0.9221802,-0.43536377
0.36791992,-0.8040161,-0.43756104
0.111816406,-0.84869385,-0.46881104
0.6948242,-1.3372192,-0.09161377
0.37402344,-0.552063,-0.08355713
0.56689453,-1.060852,-0.18414307
0.39038086,-0.58843994,-0.12530518
0.4440918,-0.8933716,-0.190979
0.5222168,-1.1416626,-0.5772095
0.17163086,-0.61553955,-0.3953247
0.15698242,-0.89508057,-0.43463135
0.36987305,-0.81085205,-0.40386963
0.22949219,-0.92803955,-0.4331665
0.74121094,-1.3106079,-0.035461426
0.30664062,-0.6865845,-0.21539307
0.61743164,-1.0112915,-0.074035645
0.3972168,-0.5906372,-0.16583252
0.42944336,-0.8171997,-0.06109619
0.21655273,-1.1985474,-0.5930786
0.26000977,-0.6655884,-0.32305908
0.13354492,-0.96295166,-0.39312744
0.32421875,-0.8555298,-0.36968994
0.20410156,-0.86431885,-0.39508057
0.7561035,-1.336731,-0.15509033
0.36254883,-0.659729,-0.09307861
0.6706543,-0.98883057,-0.13458252
0.33032227,-0.5552368,-0.14019775
0.32006836,-0.8953247,-0.02178955
0.20654297,-1.2173462,-0.72662354
0.31274414,-0.5310669,-0.33502197
0.040039062,-1.1680298,-0.3242798
0.38916016,-0.7373657,-0.348938
0.20629883,-0.9817505,-0.3796997
0.4050293,-0.93218994,-0.16851807
0.6027832,-0.7246704,-0.047424316
0.55371094,-0.9011841,-0.19903564
0.4489746,-0.7481079,-0.18121338
0.3581543,-0.8882446,-0.082336426
0.27148438,-1.3250122,-0.88531494
0.15258789,-0.4656372,-0.33648682
0.16015625,-0.96295166,-0.5154419
0.3762207,-0.75323486,-0.40533447
0.2397461,-0.85284424,-0.5552368
0.41357422,-0.91778564,0.20257568
0.5427246,-0.75738525,-0.42266846
0.6467285,-0.7542114,-0.14605713
0.35351562,-0.80255127,-0.22979736
0.44726562,-0.8015747,-0.23834229
0.4309082,-0.9763794,-0.67803955
0.26098633,-0.71417236,-0.378479
0.11254883,-0.85284424,-0.47857666
0.19873047,-0.70562744,-0.44366455
0.30664062,-0.8567505,-0.47491455
0.5541992,-1.1504517,-0.34429932
0.17529297,-0.517395,-0.109680176
0.7937012,-1.1067505,-0.21148682
0.3930664,-0.5359497,-0.0881958
0.5253906,-0.8308716,-0.13238525
0.5427246,-1.098938,-0.7317505
0.18237305,-0.67144775,-0.51885986
0.11279297,-0.7835083,-0.46051025
0.38989258,-0.8040161,-0.5132446
0.25317383,-0.81817627,-0.43634033
0.3659668,-0.9614868,-0.2703247
0.64868164,-0.67974854,0.016052246
0.48168945,-0.85284424,-0.24005127
0.5991211,-0.7156372,-0.09039307
0.5007324,-0.72540283,-0.09698486
0.4248047,-1.1856079,-0.7896118
0.1784668,-0.6067505,-0.4138794
0.053710938,-0.9053345,-0.4348755
0.38745117,-0.77838135,-0.4829712
0.33911133,-0.9089966,-0.47418213
0.19360352,-0.8069458,-0.045959473
0.7817383,-0.7398071,-0.09088135
0.6015625,-0.83721924,-0.2769165
0.37426758,-0.7131958,-0.09112549
0.22265625,-0.86920166,-0.3567505
0.39941406,-0.85040283,-0.5942993
-0.064697266,-0.7283325,-0.4463501
0.33642578,-0.87042236,-0.4697876
0.18408203,-0.85113525,-0.4680786
0.53271484,-0.991272,-0.46710205
0.22875977,-0.62579346,-0.015686035
0.7536621,-0.9043579,-0.07989502
0.53100586,-0.59039307,-0.15509033
0.41357422,-0.90826416,-0.10699463
0.37841797,-0.8718872,-0.5310669
0.35107422,-0.8081665,-0.46539307
-0.02709961,-0.8831177,-0.4319458
0.4013672,-0.82891846,-0.43463135
0.12402344,-0.81329346,-0.3916626
0.7092285,-1.1409302,-0.3880005
0.3149414,-0.6724243,-0.1428833
0.71899414,-0.7959595,-0.16925049
0.5444336,-0.74346924,-0.12677002
0.38085938,-0.7703247,-0.05987549
0.68481445,-1.0735474,-0.74420166
0.12719727,-0.8128052,-0.36895752
0.060546875,-0.79034424,-0.46905518
0.37670898,-0.92755127,-0.5154419
0.15454102,-0.7822876,-0.34503174
0.6081543,-1.1919556,-0.120910645
0.42773438,-0.62335205,0.022644043
0.6911621,-0.76519775,-0.07550049
0.43554688,-0.85528564,-0.2000122
0.4104004,-0.5942993,0.051208496
0.6633301,-1.2034302,-0.8101196
0.28100586,-0.47076416,-0.23883057
-0.034179688,-0.91192627,-0.4385376
0.39038086,-0.8648071,-0.47979736
0.19384766,-0.710022,-0.4048462
0.38891602,-1.2974243,-0.30743408
0.53344727,-0.5679321,-0.18170166
0.66503906,-1.1599731,-0.22149658
0.42016602,-0.48883057,-0.05279541
0.5354004,-0.8953247,-0.1572876
0.50219727,-0.94659424,-0.56573486
0.2211914,-0.85943604,-0.4348755
0.021240234,-0.8130493,-0.45758057
0.47021484,-0.8140259,-0.4241333
0.14233398,-0.8501587,-0.362854
0.6604004,-0.97320557,-0.25909424
0.20532227,-0.7192993,-0.18658447
0.81274414,-0.95880127,-0.082336426
0.46704102,-0.60650635,-0.109436035
0.3881836,-0.7449341,-0.039123535
0.53515625,-1.2984009,-0.67852783
0.17578125,-0.631897,-0.3423462
0.1706543,-0.78741455,-0.3723755
0.50341797,-0.89801025,-0.4055786
0.2548828,-0.9138794,-0.40264893
0.3112793,-0.8999634,-0.25054932
0.34594727,-0.85723877,-0.16192627
0.720459,-0.8418579,0.008972168
0.52075195,-0.80963135,-0.13092041
0.45043945,-0.6741333,-0.054748535
0.42773438,-0.8657837,-0.1272583
0.6418457,-1.1350708,-0.7415161
0.12231445,-0.7647095,-0.44561768
0.24316406,-0.73321533,-0.44317627
0.43676758,-0.8230591,-0.41973877
0.31225586,-0.86798096,-0.4907837
0.56811523,-0.9163208,-0.2612915
0.28076172,-0.61846924,-0.16119385
0.9482422,-1.0110474,-0.10040283
0.28027344,-0.6560669,-0.12921143
0.5617676,-0.70318604,-0.17144775
0.49731445,-1.0046997,-0.42022705
0.23071289,-0.6231079,-0.6243286
0.088378906,-0.815979,-0.3760376
0.42529297,-0.80181885,-0.5027466
0.41674805,-0.847229,-0.38336182
0.4555664,-1.0210571,-0.035461426
0.5817871,-0.597229,-0.09136963
0.670166,-0.9290161,-0.26861572
0.4189453,-0.6206665,-0.13018799
0.4411621,-0.74053955,-0.07305908
0.76708984,-1.2571411,-0.98150635
0.16235352,-0.53912354,-0.28790283
0.1706543,-0.86383057,-0.45269775
0.3935547,-0.7974243,-0.46173096
0.25805664,-0.8413696,-0.5005493
0.6911621,-1.0203247,-0.29962158
0.37353516,-0.70269775,-0.09210205
0.7780762,-0.9326782,-0.24615479
0.37304688,-0.6001587,-0.027160645
0.56884766,-0.7971802,-0.13018799
0.5983887,-1.1980591,-0.7449341
0.2734375,-0.45880127,-0.29888916
0.14453125,-0.99884033,-0.49371338
0.47753906,-0.70440674,-0.4151001
0.24365234,-0.86187744,-0.45928955
0.49267578,-0.9402466,-0.35040283
0.2824707,-0.70806885,-0.018371582
0.8371582,-0.82891846,-0.124572754
0.44018555,-0.67437744,-0.043518066
0.5974121,-0.7456665,-0.082092285
0.36743164,-0.90045166,-0.3838501
0.37060547,-0.8591919,-0.41705322
0.2919922,-0.77008057,-0.49053955
0.29833984,-0.8340454,-0.49273682
0.2763672,-0.8435669,-0.43389893
0.22875977,-0.7942505,-0.44659424
0.7675781,-1.0632935,-0.23297119
0.3149414,-0.6331177,-0.20220947
0.8249512,-0.7788696,-0.13922119
0.5444336,-0.7715454,-0.11480713
0.40014648,-0.78790283,-0.17315674
0.6538086,-0.831604,-0.5359497
0.27612305,-0.8171997,-0.5015259
0.1574707,-0.7852173,-0.3977661
0.2319336,-0.80548096,-0.46929932
0.34057617,-0.84991455,-0.5042114
0.2956543,-0.8735962,-0.47418213
0.2980957,-0.57159424,0.109313965
0.80566406,-0.8284302,-0.25982666
0.46264648,-0.63409424,-0.09234619
0.49536133,-0.81427,-0.20050049
0.42016602,-1.1394653,-0.6956177
0.25756836,-0.5527954,-0.44415283
0.13891602,-1.0437622,-0.44024658
0.29223633,-0.6187134,-0.55352783
0.26660156,-0.9546509,-0.38897705
0.4033203,-0.69610596,-0.38238525
0.5534668,-0.7871704,0.047058105
0.5925293,-0.84332275,-0.35601807
0.46264648,-0.6734009,-0.13165283
0.48168945,-0.73760986,-0.07183838
0.5097656,-1.1358032,-0.82476807
0.32714844,-0.6433716,-0.43023682
0.10961914,-0.91607666,-0.43048096
0.3491211,-0.6487427,-0.51519775
0.1652832,-0.8706665,-0.4644165
0.68115234,-1.0007935,-0.45684814
0.064697266,-0.5523071,-0.10333252
1.0231934,-0.84942627,-0.18634033
0.44458008,-0.7822876,-0.13360596
0.5239258,-0.58966064,-0.25836182
0.4404297,-0.92559814,-0.14581299
0.44482422,-0.9043579,-0.692688
0.24536133,-0.60235596,-0.4265747
0.2607422,-0.98687744,-0.49346924
0.4013672,-0.7127075,-0.37872314
0.19506836,-0.91973877,-0.4993286
0.5554199,-0.93048096,-0.33746338
0.328125,-0.6502075,-0.09869385
0.90722656,-0.84552,-0.117248535
0.4970703,-0.6616821,-0.101379395
0.43164062,-0.7827759,-0.11968994
0.6591797,-0.9817505,-0.49908447
0.28149414,-0.72906494,-0.45343018
0.08984375,-0.8364868,-0.44805908
0.34399414,-0.739563,-0.41729736
0.3383789,-0.9561157,-0.48199463
0.4128418,-0.954895,-0.42755127
0.2685547,-0.741272,-0.15216064
0.7163086,-0.83306885,-0.12408447
0.6003418,-0.77471924,-0.19268799
0.4777832,-0.6585083,-0.23272705
0.3088379,-0.8584595,-0.13897705
0.63061523,-1.0437622,-0.67926025
0.06274414,-0.642395,-0.5178833
0.22241211,-0.7930298,-0.5029907
0.42944336,-0.7908325,-0.5120239
0.2680664,-0.85040283,-0.5906372
0.6088867,-1.0513306,-0.22027588
0.43554688,-0.62994385,-0.19171143
0.6208496,-0.9963989,-0.057922363
0.49951172,-0.64971924,-0.27398682
0.6052246,-0.7756958,-0.070373535
0.4482422,-1.00177,-0.6760864
0.2878418,-0.69317627,-0.42755127
0.111572266,-0.7366333,-0.442688
0.6022949,-0.90826416,-0.44293213
0.1574707,-0.76763916,-0.3892212
0.4111328,-0.87579346,-0.4512329
0.4711914,-0.90753174,-0.13873291
0.73046875,-0.84869385,-0.009094238
0.5109863,-0.8970337,-0.15118408
0.59228516,-0.66363525,-0.11260986
0.35498047,-0.8101196,-0.047668457
0.56469727,-1.0391235,-0.66192627
0.2553711,-0.7817993,-0.32598877
0.23291016,-0.80548096,-0.44073486
0.36523438,-0.9175415,-0.34454346
0.22705078,-0.84869385,-0.45367432
0.5371094,-0.7522583,-0.3867798
0.45581055,-0.91656494,-0.0032348633
0.66430664,-0.8218384,-0.20880127
0.5217285,-0.70880127,-0.1326294
0.4326172,-0.6934204,-0.08087158
0.7849121,-1.0449829,-0.5383911
0.28857422,-0.50860596,-0.38824463
0.096191406,-0.93170166,-0.38311768
0.36621094,-0.78253174,-0.57940674
0.22558594,-0.89263916,-0.49542236
0.4494629,-0.86431885,-0.45758057
0.3227539,-0.83551025,-0.06011963
0.8654785,-0.75079346,-0.045959473
0.24389648,-0.8311157,-0.06329346
0.68310547,-0.6201782,-0.13995361
0.47583008,-0.91534424,-0.24859619
0.36914062,-0.9741821,-0.75567627
0.052734375,-0.7481079,-0.456604
0.4338379,-0.74884033,-0.53448486
0.27734375,-0.9055786,-0.378479
0.4465332,-0.8543091,-0.50128174
0.545166,-0.9024048,-0.07574463
0.51342773,-0.7659302,-0.045959473
0.6047363,-0.829895,-0.12384033
0.5854492,-0.66534424,-0.23516846
0.6320801,-0.96539307,-0.08721924
0.529541,-0.8201294,-0.5288696
0.26293945,-0.784729,-0.39117432
0.1772461,-0.878479,-0.4915161
0.33398438,-0.5886841,-0.40777588
0.39697266,-0.9866333,-0.40289307
0.43066406,-0.90826416,-0.3171997
0.31298828,-0.7703247,-0.16485596
0.83032227,-0.76641846,-0.058410645
0.41967773,-0.8206177,0.049743652
0.52075195,-0.58306885,-0.17120361
0.65625,-0.90582275,-0.04449463
0.42773438,-0.99346924,-0.5750122
0.19726562,-0.74102783,-0.44244385
0.16625977,-0.83795166,-0.4133911
0.50219727,-0.7593384,-0.4187622
0.29125977,-1.0335083,-0.3262329
0.38232422,-0.8789673,-0.4368286
0.32861328,-0.7312622,-0.13043213
0.83569336,-0.85821533,-0.062561035
0.32983398,-0.7883911,0.058776855
0.63305664,-0.52789307,-0.17559814
0.48168945,-0.9468384,0.051696777
0.46191406,-1.0840454,-0.85894775
0.018798828,-0.67974854,-0.2937622
0.19702148,-0.8596802,-0.47320557
0.48242188,-0.90582275,-0.39019775
0.16845703,-0.87506104,-0.45684814
0.4880371,-0.9763794,-0.34869385
0.4152832,-0.7444458,-0.22564697
0.65283203,-0.79229736,0.04119873
0.3737793,-0.81329346,-0.1741333
0.5957031,-0.710022,-0.081848145
0.3881836,-1.0637817,-0.18560791
0.45703125,-0.7793579,-0.57159424
-0.08081055,-0.9883423,-0.4434204
0.22924805,-0.70513916,-0.41607666
0.33642578,-1.0003052,-0.38116455
0.19335938,-0.9678345,-0.36236572
0.27734375,-0.9006958,-0.41534424
0.4013672,-0.7305298,-0.026184082
0.5966797,-0.82940674,-0.0025024414
0.41967773,-0.847229,-0.1260376
0.5913086,-0.7608032,-0.08673096
