accelX,accelY,accelZ
-0.27124023,-0.9199829,0.45477295
0.11279297,-1.3076782,0.15081787
-0.13720703,-0.7920532,0.1071167
-0.091552734,-0.90216064,0.2567749
-0.11669922,-0.98687744,0.13323975
-0.2211914,-0.98687744,0.32073975
-0.076171875,-0.7178345,0.2711792
0.2956543,-1.0662231,0.097351074
-0.15161133,-1.3904419,0.42352295
0.2277832,-1.0037231,0.39178467
-0.09301758,-0.6265259,0.23699951
-0.12133789,-0.6109009,0.21185303
0.20483398,-1.5545044,0.14593506
-0.7043457,-1.0986938,0.32513428
0.3635254,-0.7173462,0.43328857
-0.08666992,-0.46099854,0.25482178
0.32080078,-0.8772583,0.32366943
-0.05883789,-1.2947388,-0.21246338
-0.033447266,-1.3931274,0.64886475
0.35009766,-0.79351807,0.26361084
0.021728516,-0.68707275,0.13812256
-0.09082031,-0.7827759,0.32269287
0.6862793,-0.9898071,0.23699951
-0.17993164,-1.5593872,-0.043762207
0.3779297,-0.88653564,0.3678589
0.2902832,-0.2263794,0.15765381
0.12573242,-0.64141846,-0.8897095
-0.0087890625,-2.0,0.35028076
0.6269531,-0.956604,0.08880615
-0.13989258,-0.020080566,-0.10845947
0.38623047,-0.71661377,-0.55670166
-0.07104492,-2.0,0.1461792
-0.04663086,-0.20025635,-0.3106079
0.7336426,-1.7258911,0.52264404
0.43676758,-0.741272,0.27825928
0.15405273,-0.69854736,0.030212402
0.4501953,-0.7883911,0.39007568
0.19702148,-0.49420166,0.051940918
1.0664062,-1.0703735,-1.0090942
0.42822266,-0.9224243,-0.3567505
0.18676758,-0.75665283,0.054870605
0.18798828,-0.39483643,-0.18145752
0.13842773,-0.6296997,-0.3760376
1.0095215,-2.0,0.9039917
0.6394043,-1.078186,0.36810303
0.12011719,-0.6470337,0.008483887
-0.0009765625,-0.40631104,0.10858154
0.1953125,-0.54351807,0.43084717
0.47729492,-1.6201782,-0.1272583
-0.068847656,-1.2295532,0.08416748
0.07519531,-0.67144775,0.17327881
0.17260742,-0.54229736,0.18353271
0.26391602,-0.6255493,0.031677246
0.66186523,-1.7625122,0.22088623
0.42358398,-1.232727,0.17718506
0.30664062,-0.57037354,0.28948975
-0.009277344,-0.27178955,0.01361084
0.24316406,-0.79888916,0.062683105
0.22827148,-0.32843018,-0.09039307
0.20288086,-0.53692627,-0.051330566
-0.12597656,-1.0518188,-0.40753174
-0.34594727,-1.2478638,0.44647217
0.6760254,-1.0056763,0.85980225
-0.075927734,-0.36090088,0.22894287
0.0146484375,-0.5388794,0.37322998
0.76342773,-1.102356,0.1329956
0.2932129,-1.1973267,0.09124756
-0.076171875,-0.958313,0.16668701
0.16455078,-0.83795166,0.30755615
0.083984375,-0.79351807,0.22796631
0.19165039,-0.7305298,0.0692749
-0.43676758,-0.62042236,0.7509155
0.13500977,-1.6680298,0.96917725
0.06738281,-0.8760376,0.43060303
-0.092285156,-0.70880127,0.19451904
0.31079102,-0.7732544,0.43060303
0.08959961,-0.7161255,0.3012085
0.29003906,-1.2632446,0.008972168
-0.27270508,-0.9849243,0.56951904
0.20874023,-0.9299927,0.19647217
0.049072266,-0.86920166,0.19451904
0.10668945,-0.74591064,0.20037842
0.12207031,-0.7229614,0.09295654
0.40478516,-1.1956177,-0.07525635
-0.30493164,-1.467102,0.1918335
0.7910156,-1.0667114,0.31658936
0.11010742,-0.6165161,0.13372803
0.13232422,-0.6643677,0.2411499
0.15673828,-0.64801025,-0.14898682
0.024658203,-1.9058228,0.2748413
1.0632324,-0.74542236,-0.3110962
-0.03466797,-0.78863525,0.020690918
0.05053711,-0.5383911,0.12030029
-0.010009766,-0.48736572,0.018493652
0.9111328,-1.2175903,-0.5161743
-2.0,-1.9622192,-0.5383911
0.0847168,-1.2202759,0.6781616
-0.04321289,-0.3045044,0.13128662
-0.029785156,-0.58380127,0.4088745
0.24023438,-0.7842407,-0.17462158
-0.61279297,-1.5969849,0.62249756
0.7675781,-1.178772,0.79559326
-0.10986328,-0.68341064,0.2177124
-0.068115234,-0.5088501,0.12005615
0.042236328,-0.4048462,0.25946045
0.50390625,-1.5217896,0.053894043
-0.23828125,-1.8775024,0.22601318
0.5859375,-1.3115845,0.5529175
0.14038086,-0.61138916,0.007507324
0.11401367,-0.5791626,0.117126465
0.3762207,-0.7234497,0.17645264
0.22216797,-1.0769653,0.031921387
-0.45922852,-1.5855103,0.6469116
0.5600586,-0.58428955,0.05267334
-0.45654297,-1.1621704,0.17303467
0.008056641,-1.0454712,0.35736084
0.17211914,-0.72320557,0.054382324
0.30737305,-0.8945923,0.3012085
0.2836914,-1.4512329,0.2423706
0.00048828125,-0.94122314,0.22772217
0.20532227,-0.7217407,0.36810303
0.08959961,-0.6148071,0.19232178
0.25805664,-1.0308228,-0.21905518
-0.701416,-0.5667114,1.0841675
1.3747559,-0.78326416,0.40252686
-0.56811523,-0.55133057,-0.14849854
0.14526367,-0.74176025,0.2164917
0.32421875,-1.2622681,0.64837646
-0.03173828,-1.2442017,0.5031128
0.44555664,-1.0835571,0.14569092
0.2487793,-0.36065674,0.11077881
0.18310547,-0.8411255,-0.41583252
-0.7043457,-2.0,0.6390991
1.2150879,-0.913147,0.14910889
-0.2055664,-0.7168579,0.17059326
0.27978516,-0.45611572,-0.06939697
0.57592773,-1.4534302,0.22991943
0.2421875,-0.8538208,0.30560303
0.20678711,-1.0200806,0.37371826
0.080078125,-0.5142212,0.06072998
0.532959,-0.95928955,-0.35162354
-0.65234375,-1.3884888,0.23309326
0.673584,-0.8550415,0.2999878
-0.18920898,-0.7366333,0.0016479492
-0.12207031,-0.8423462,-0.03253174
0.53759766,-0.847229,-0.13604736
-0.32788086,-1.7422485,0.14154053
0.12768555,-0.95513916,0.31732178
0.14233398,-0.7263794,0.23406982
-0.0053710938,-0.81500244,0.1864624
-0.048828125,-0.58966064,0.22479248
0.27661133,-1.7334595,-0.24102783
0.052978516,-1.0620728,0.45355225
0.013427734,-0.72540283,0.12884521
0.047607422,-0.569397,-0.28424072
-0.37841797,-0.2901001,0.11785889
1.999939,-2.0,0.8522339
0.6977539,-1.0164185,-0.51031494
-0.2775879,-0.90582275,-0.16949463
0.4729004,-0.35821533,0.29852295
-0.30151367,-0.16729736,-0.12579346
1.0039062,-2.0,1.2711792
1.612793,-1.2090454,-0.331604
-0.13232422,-0.737854,-0.12652588
-0.10229492,-0.33917236,0.121520996
0.25512695,-0.24664307,-0.023742676
0.5686035,-1.6463013,-0.36871338
-0.27392578,-1.4312134,0.17840576
0.09472656,-0.85479736,0.3505249
-0.0075683594,-0.5508423,0.10247803
0.07714844,-0.62286377,0.2711792
-0.17919922,-0.84161377,0.32757568
0.69873047,-1.5222778,0.33636475
0.03515625,-1.0591431,0.17010498
-0.05419922,-0.739563,0.26434326
0.06762695,-0.61065674,0.24481201
-0.18774414,-0.96466064,0.43597412
0.39282227,-1.1809692,-0.20220947
-0.5854492,-1.3560181,0.1696167
0.642334,-0.8987427,0.36468506
0.37646484,-0.53375244,0.3690796
-0.26904297,-0.33087158,0.101745605
1.2565918,-2.0,0.65130615
0.5996094,-0.84088135,-0.6790161
0.09301758,-0.84576416,-0.0015258789
-0.04296875,-0.30963135,0.11859131
-0.107910156,-0.2954712,0.022644043
1.999939,-2.0,1.5817261
1.0087891,-0.81866455,0.2975464
0.2319336,-0.23565674,0.16644287
-0.2854004,-0.1663208,0.19207764
1.999939,-2.0,1.3117065
-0.90112305,-1.3613892,0.07635498
-0.17456055,-0.9439087,0.35736084
0.06274414,-0.4109497,0.3463745
-0.05517578,-0.5496216,0.086120605
0.43798828,-0.6074829,-0.4192505
-0.6882324,-1.578186,0.5805054
0.27294922,-1.1599731,0.4677124
-0.29492188,-0.52301025,0.21282959
0.03173828,-0.55792236,0.22747803
-0.12695312,-0.7268677,0.043640137
0.4465332,-1.8755493,0.809021
0.12207031,-1.0689087,0.5734253
0.08618164,-0.6421509,0.37445068
-0.0024414062,-0.76348877,0.3283081
0.02368164,-0.74298096,0.47406006
-0.016113281,-0.75665283,0.35125732
-0.00024414062,-0.7190552,0.2880249
0.18041992,-0.5913696,0.16888428
0.6022949,-2.0,0.9557495
0.46142578,-0.9602661,0.6022339
0.13378906,-0.8953247,0.21917725
-0.055664062,-0.35601807,0.08758545
-0.3215332,-0.50006104,0.31097412
0.8010254,-1.5388794,-0.41900635
-0.27148438,-1.7588501,-0.030822754
0.2084961,-1.0715942,0.34539795
-0.2290039,-0.6577759,0.0004272461
-0.057617188,-0.9102173,0.21063232
0.6220703,-0.28814697,0.12347412
-0.1508789,-0.47613525,0.10394287
1.999939,-1.2146606,0.3944702
-0.07519531,-0.8518677,-0.647522
-0.28710938,-0.8118286,0.034362793
0.46777344,-6.1035156e-05,-0.051574707
0.0021972656,-0.30133057,-0.6404419
-0.24316406,-0.4883423,0.7172241
1.4072266,-2.0,1.5348511
0.2043457,-0.6189575,0.16009521
0.22558594,-0.42193604,0.18450928
-0.020019531,-0.39752197,0.1552124
1.999939,-1.539856,1.739685
-0.024902344,-0.9680786,0.020446777
-0.18774414,-0.8596802,0.27947998
0.07788086,-0.4998169,0.22210693
-0.018066406,-0.5159302,0.31195068
-0.013427734,-0.8233032,0.09588623
-0.12890625,-1.7576294,0.6100464
-0.071777344,-1.1426392,0.21673584
-0.44628906,-0.49517822,-0.09649658
0.32983398,-0.70758057,-0.026672363
-0.2939453,-1.1621704,0.10614014
-0.25830078,-0.73223877,0.31829834
-0.23291016,-0.92315674,0.18377686
-0.39916992,-0.5977173,0.06854248
-0.001953125,-0.86968994,0.36517334
-0.023925781,-0.83380127,-0.022521973
-0.0859375,-1.2175903,-0.6326294
0.5722656,-1.5686646,0.58221436
0.44140625,-1.0730591,-0.37994385
-0.1394043,-0.68585205,0.061462402
0.061767578,-0.5425415,0.24847412
0.017822266,-0.206604,0.16790771
1.7507324,-1.7153931,-0.89141846
-0.7624512,-1.4019165,-0.24371338
0.1328125,-0.7625122,0.14276123
-0.16015625,-0.36602783,0.15423584
-0.06665039,-0.50909424,0.27142334
0.5449219,-1.5701294,-0.40338135
-0.09326172,-1.3899536,-0.03692627
-0.06933594,-0.9817505,0.28826904
-0.16210938,-0.5430298,-0.11578369
0.087402344,-0.44244385,-0.050842285
0.6791992,-1.192688,0.3414917
0.17114258,-1.4385376,0.31781006
0.08911133,-1.0200806,0.26898193
-0.061035156,-0.33746338,-0.003479004
0.022949219,-1.5613403,-0.13433838
-0.04321289,-0.47808838,-0.109436035
-0.0043945312,-0.41656494,0.032165527
0.7084961,-0.9439087,0.2477417
0.23876953,-1.8933716,0.3991089
0.1262207,-1.0720825,0.402771
0.17016602,-0.4595337,0.10272217
0.14404297,-0.70318604,0.29779053
0.12792969,-0.71759033,0.39569092
0.22558594,-1.3970337,0.14471436
0.12011719,-1.2271118,0.19647217
0.31884766,-1.1321411,0.04168701
-0.14331055,-0.82159424,0.03753662
0.110839844,-0.6296997,0.17254639
0.08105469,-0.6602173,0.070007324
1.6623535,-1.5122681,1.0480347
0.1965332,-1.1155396,0.434021
0.14428711,-0.8557739,0.39837646
0.36108398,-0.36431885,0.28778076
0.030273438,-0.47979736,0.44525146
0.8129883,-1.4172974,-0.63067627
0.39648438,-1.2459106,-0.16070557
0.18017578,-0.9993286,0.11419678
0.12182617,-0.49298096,0.16986084
-0.025634766,-0.52349854,0.0138549805
0.33496094,-0.90289307,-0.7061157
-1.079834,-2.0,-0.35968018
0.16455078,-0.8833618,-0.105773926
-0.14746094,-0.4241333,-0.024475098
0.025634766,-0.7173462,0.09881592
0.24584961,-0.8086548,-0.2703247
-0.39697266,-1.7737427,0.39886475
0.65405273,-1.1292114,0.39959717
0.26733398,-0.56085205,0.26263428
0.18774414,-0.5371704,0.12420654
-0.12158203,-0.8167114,0.47113037
0.022949219,-1.2224731,0.385437
0.16552734,-1.031311,0.20599365
0.23339844,-1.1904907,0.23602295
-0.028076172,-0.7871704,0.12298584
0.049072266,-0.59991455,0.22943115
0.28125,-0.89556885,-0.26934814
-0.24633789,-1.5640259,0.054138184
0.51538086,-0.84747314,0.33050537
0.12719727,-0.49493408,0.2843628
-0.096191406,-0.6358032,0.20013428
0.021972656,-0.3977661,-0.030090332
0.5354004,-0.5869751,-0.56329346
-1.2988281,-1.8899536,0.06707764
-0.10229492,-1.0706177,0.5397339
0.07348633,-0.08135986,0.1984253
-0.22924805,-0.5984497,0.14178467
-0.0068359375,-0.33013916,-0.06866455
0.16577148,-0.42999268,0.0060424805
-0.46435547,-1.1282349,0.29315186
0.14550781,-1.6687622,0.6820679
0.2133789,-1.045227,0.45428467
0.12451172,-0.5869751,0.262146
0.118652344,-0.60406494,0.30340576
0.1394043,-0.81207275,0.47381592
-0.17333984,-0.8308716,0.47991943
-0.23168945,-0.8447876,0.6144409
0.12036133,-1.1868286,0.40960693
-0.25683594,-1.0806274,0.2741089
0.3557129,-1.1629028,0.38934326
-0.14404297,-0.725647,0.17132568
-0.13623047,-0.786438,0.24749756
-0.12548828,-0.7647095,0.33758545
-0.051757812,-0.76275635,0.31365967
0.6154785,-0.7649536,-0.16119385
-0.012451172,-2.0,0.26922607
0.5371094,-1.0408325,0.29632568
0.19750977,-0.75665283,0.33880615
0.083496094,-0.64508057,0.3690796
0.011230469,-0.473938,0.27288818
0.4963379,-1.2625122,-0.13336182
0.060546875,-1.3008423,-0.0076293945
0.21142578,-1.3638306,0.47088623
0.15014648,-0.8154907,0.4262085
0.09814453,-0.6409302,0.3163452
0.10546875,-0.41973877,0.08905029
0.7199707,-1.0327759,0.75531006
0.043945312,-1.1101685,0.6901245
0.22338867,-0.8308716,0.46209717
0.036621094,-0.44317627,0.34661865
0.015625,-0.600647,0.39886475
-0.29858398,-0.7991333,0.7909546
0.9802246,-2.0,1.605896
1.0500488,-0.64141846,0.4179077
-0.41577148,-0.8599243,0.051940918
0.53564453,-0.6983032,-0.10040283
0.15527344,-1.0317993,-0.05596924
0.36987305,-1.0405884,0.01361084
0.24731445,-1.0498657,-0.00079345703
0.15673828,-1.0149536,0.09124756
0.15771484,-0.79107666,0.21063232
-0.03466797,-0.7659302,0.22528076
0.16992188,-0.42218018,0.17059326
1.5541992,-1.8191528,0.75457764
-0.0012207031,-1.4402466,0.69403076
0.1875,-0.7671509,0.4928589
0.09326172,-0.50665283,0.322937
0.1550293,-0.47540283,0.33465576
0.13232422,-0.6567993,0.2609253
-0.018554688,-0.59747314,0.1642456
-0.0234375,-0.5288696,0.21868896
1.5634766,-1.4783325,0.8966675
0.23461914,-1.3057251,0.71746826
