accelX,accelY,accelZ
-0.16918945,-1.0352173,-0.024719238
-0.14160156,-0.9846802,-0.08331299
-0.22558594,-0.98272705,-0.09185791
-0.22753906,-1.0159302,-0.06744385
-0.25195312,-0.96343994,-0.08087158
-0.23339844,-0.9590454,-0.010070801
-0.26489258,-0.9483032,-0.013244629
-0.2980957,-0.97125244,0.0028686523
-0.20385742,-0.9351196,0.005554199
-0.2602539,-1.0303345,0.042175293
-0.06713867,-0.9751587,-0.0413208
-0.041748047,-0.9343872,-0.008361816
-0.091308594,-1.0247192,0.10687256
-0.022460938,-0.9890747,-0.0020141602
-0.0126953125,-0.93048096,0.053649902
-0.010253906,-0.94537354,0.046081543
-0.04248047,-0.9451294,0.12762451
-0.072021484,-0.9829712,0.113220215
-0.14331055,-0.91485596,-0.15557861
-0.18896484,-1.0081177,-0.034240723
-0.22583008,-1.0957642,-0.054748535
-0.2397461,-0.9553833,-0.11651611
-0.22851562,-0.9680786,-0.051818848
-0.23754883,-0.8760376,0.043395996
-0.21899414,-0.9373169,-0.003479004
-0.123291016,-0.9710083,0.09295654
-0.013183594,-0.97857666,-0.19659424
-0.056640625,-1.0083618,0.06390381
-0.015136719,-0.99713135,-0.06964111
-0.026855469,-0.9585571,0.06390381
-0.032714844,-0.93878174,0.08319092
-0.0014648438,-0.9590454,0.11907959
-0.09838867,-0.9246216,0.1395874
-0.10205078,-1.013977,0.05682373
-0.1887207,-0.95513916,0.0138549805
-0.21923828,-0.927063,0.027038574
-0.23071289,-0.9758911,-0.027648926
-0.2734375,-0.9619751,0.00018310547
-0.26245117,-0.94976807,-0.011291504
-0.30419922,-0.96832275,-0.020324707
-0.30566406,-0.9627075,0.028259277
-0.26171875,-0.9212036,0.015075684
-0.15771484,-0.99591064,0.0079956055
-0.32080078,-1.0820923,0.050720215
0.044921875,-0.9348755,-0.0791626
-0.061279297,-0.98028564,0.02142334
-0.016845703,-0.9702759,-0.04815674
-0.0009765625,-0.93585205,0.06878662
-0.048339844,-0.960022,0.10418701
-0.04711914,-0.9414673,0.16815186
-0.0546875,-0.99346924,0.09051514
-0.14526367,-1.0046997,0.018005371
-0.1821289,-0.95098877,-0.031311035
-0.22705078,-0.97369385,0.005554199
-0.22021484,-1.0476685,0.014831543
-0.26220703,-0.9417114,0.03387451
-0.27514648,-0.9763794,0.027038574
-0.29003906,-0.880188,0.03778076
-0.22558594,-0.9692993,-0.0037231445
-0.20629883,-0.91851807,0.10443115
-0.0014648438,-0.9937134,-0.16265869
-0.068115234,-1.0725708,0.09222412
0.02709961,-0.9866333,-0.0491333
0.014892578,-0.94610596,0.022644043
0.020751953,-0.96832275,0.042907715
-0.0390625,-0.9553833,0.11541748
-0.10595703,-0.96343994,0.07904053
-0.06567383,-1.0447388,-6.1035156e-05
-0.14086914,-0.98931885,0.005065918
-0.24658203,-0.90948486,-0.011779785
-0.24633789,-0.9854126,-0.022521973
-0.29541016,-0.97784424,-0.023986816
-0.2626953,-0.93414307,-0.041809082
-0.3022461,-0.95684814,0.062438965
-0.30322266,-0.93585205,-0.020812988
-0.2788086,-0.9734497,0.002380371
-0.20947266,-0.9727173,0.121520996
-0.21264648,-1.015686,-0.04888916
-0.04296875,-0.9385376,0.058044434
-0.06225586,-0.9780884,0.13201904
0.0021972656,-0.9734497,0.020446777
-0.020751953,-0.9414673,0.09613037
0.00390625,-0.9849243,0.062683105
-0.011474609,-0.95684814,0.12738037
-0.01977539,-0.9585571,0.11248779
-0.12719727,-0.97784424,0.12640381
-0.13110352,-0.98883057,-0.04425049
-0.1850586,-0.93756104,-0.022766113
-0.22241211,-1.0281372,-0.06304932
-0.23242188,-0.9690552,-0.026184082
-0.25854492,-0.9834595,-0.0010375977
-0.2993164,-0.9624634,0.028259277
-0.26464844,-0.940979,-0.0032348633
-0.23510742,-0.93048096,0.022644043
-0.21435547,-0.93878174,0.07757568
-0.053710938,-0.9314575,-0.094055176
-0.026611328,-0.97052,0.054626465
-0.0690918,-1.0896606,0.04876709
-0.010253906,-0.9421997,0.13470459
-0.017822266,-0.95977783,-0.0005493164
-0.026367188,-0.9697876,0.05633545
-0.19506836,-0.95684814,-0.058410645
-0.1628418,-0.9956665,-0.08013916
-0.17895508,-0.96099854,-0.06378174
-0.21289062,-0.9614868,-0.11578369
-0.22192383,-0.9793091,-0.08013916
-0.27563477,-0.95391846,-0.031066895
-0.24926758,-0.95758057,-0.08111572
-0.25317383,-0.9729614,-0.03668213
-0.29492188,-0.960022,-0.018859863
-0.06298828,-0.97369385,-0.06744385
-0.095703125,-0.9949341,-0.078430176
-0.032226562,-1.0039673,0.0072631836
-0.036132812,-0.95196533,-0.028381348
0.020019531,-1.0061646,0.03704834
0.021484375,-0.9751587,-0.062561035
-0.017089844,-0.92193604,0.062683105
-0.025390625,-0.9495239,0.10491943
-0.05419922,-0.9487915,0.10638428
-0.078125,-0.9277954,-0.06964111
-0.16308594,-0.9612427,-0.004211426
-0.19165039,-1.022522,-0.15484619
-0.24316406,-0.9819946,0.0119018555
-0.2163086,-1.0081177,-0.09503174
-0.20532227,-0.9837036,0.005554199
-0.21655273,-0.87213135,-0.089904785
-0.091552734,-1.0198364,-0.062072754
-0.18237305,-0.9793091,0.053894043
-0.03881836,-0.9639282,-0.046203613
0.0034179688,-1.0151978,0.055603027
-0.020507812,-0.9907837,0.031921387
0.020263672,-1.000061,0.026550293
-0.0029296875,-0.97979736,-0.0020141602
0.0,-0.9673462,0.10028076
-0.01953125,-1.0112915,0.120788574
-0.080322266,-0.9248657,0.06756592
-0.07421875,-1.013977,-0.016174316
-0.18408203,-0.89190674,-0.06402588
-0.22631836,-0.97076416,-0.06402588
-0.22680664,-0.9990845,0.047546387
-0.24072266,-0.94781494,-0.020568848
-0.26586914,-0.9390259,0.010437012
-0.30493164,-0.9463501,0.036315918
-0.27783203,-0.9829712,0.026550293
-0.21899414,-0.99957275,0.061950684
-0.15527344,-0.98321533,0.017028809
-0.08666992,-0.9014282,0.036315918
-0.02319336,-0.97003174,0.06829834
-0.09277344,-1.06427,0.07659912
0.044677734,-0.986145,0.06536865
0.016357422,-0.9380493,0.08685303
-0.04296875,-0.94854736,0.1539917
-0.119628906,-0.93878174,0.18426514
-0.0024414062,-1.0222778,-0.0015258789
-0.14477539,-0.88848877,0.02557373
-0.17236328,-0.9793091,-0.014953613
-0.2524414,-1.0037231,-0.007385254
-0.20727539,-0.98760986,0.03265381
-0.23364258,-0.97125244,-0.0115356445
-0.25512695,-0.9793091,-0.0010375977
-0.2602539,-0.9639282,-0.00592041
-0.29418945,-0.93414307,0.026306152
-0.25073242,-0.98101807,0.07635498
-0.29516602,-0.98931885,0.08880615
-0.13916016,-0.9182739,-0.019836426
-0.059326172,-0.96539307,0.058532715
-0.09863281,-1.0557251,0.042907715
0.026855469,-1.0247192,0.050476074
0.0041503906,-0.9307251,0.04949951
-0.043701172,-0.9561157,0.11029053
-0.14672852,-0.9446411,0.09881592
-0.13769531,-0.98516846,-0.1272583
-0.1694336,-0.93634033,-0.035949707
-0.21069336,-1.0132446,-0.07940674
-0.26879883,-1.0308228,-0.07501221
-0.26293945,-0.9968872,0.05657959
-0.23950195,-0.9258423,0.0016479492
-0.2758789,-0.9636841,-0.06793213
-0.18579102,-0.9529419,0.024841309
-0.09033203,-1.031311,-0.0064086914
-0.06958008,-0.96417236,0.038024902
0.010986328,-0.9885864,0.08416748
-0.06713867,-1.0088501,0.070495605
-0.011962891,-0.9492798,0.008728027
0.041992188,-0.9414673,0.062438965
0.037109375,-0.9558716,0.09906006
-0.051757812,-0.9729614,0.20013428
0.026611328,-0.93292236,0.14056396
0.008300781,-0.9998169,-0.054260254
-0.19165039,-0.88531494,-0.016906738
-0.20019531,-1.0496216,-0.08843994
-0.24389648,-1.015686,0.06536865
-0.2109375,-0.97198486,0.008239746
-0.22729492,-0.9649048,0.055603027
-0.22387695,-0.9104614,0.039733887
-0.19335938,-1.0767212,0.08465576
-0.10864258,-1.1016235,-0.03692627
-0.005126953,-0.9048462,0.027282715
-0.028564453,-1.0027466,0.066589355
0.015136719,-0.9783325,0.07562256
0.0012207031,-0.96759033,0.10076904
0.026855469,-0.95880127,0.077819824
0.005859375,-0.9421997,0.06048584
-0.047607422,-0.94317627,0.14178467
-0.12182617,-0.9573364,-0.04156494
-0.13769531,-0.9846802,-0.10040283
-0.18579102,-1.0713501,-0.0025024414
-0.2121582,-0.9937134,-0.08306885
-0.22875977,-0.95318604,0.03387451
-0.23364258,-0.9492798,-0.033996582
-0.23022461,-0.94366455,-0.062316895
-0.12963867,-0.9331665,-0.039611816
-0.07519531,-0.9873657,0.019958496
-0.03149414,-0.98394775,-0.050109863
-0.03100586,-0.96173096,0.015075684
-0.012451172,-0.9871216,-0.04547119
0.0234375,-0.97247314,0.019226074
0.025146484,-0.9944458,0.01361084
0.0026855469,-0.97857666,0.030944824
-0.0024414062,-0.98272705,0.07733154
-0.012207031,-0.9234009,0.13739014
-0.068603516,-0.90875244,0.022155762
-0.044921875,-1.1575317,-0.10333252
-0.23413086,-0.88409424,-0.013977051
-0.17529297,-0.98443604,-0.07745361
-0.29418945,-0.9890747,-0.007873535
-0.24243164,-0.9817505,-0.043273926
-0.25683594,-0.92755127,0.078552246
-0.29101562,-0.92681885,0.008972168
-0.22216797,-0.9331665,-0.03302002
-0.17504883,-1.0020142,0.010681152
-0.03515625,-0.95318604,0.0016479492
0.032226562,-0.9734497,-0.027893066
-0.02709961,-1.0359497,0.0014038086
0.024414062,-1.0164185,-0.04156494
0.037841797,-0.9944458,0.0446167
0.041748047,-0.9558716,0.04168701
-0.017822266,-0.9155884,0.07904053
-0.14550781,-0.78375244,0.1852417
0.025878906,-1.1621704,-0.11260986
-0.1850586,-0.9221802,-0.09234619
-0.23168945,-0.96832275,-0.041809082
-0.26049805,-0.9788208,-0.08453369
-0.24047852,-0.9807739,0.019226074
-0.25390625,-0.9734497,-0.013000488
-0.23535156,-0.9595337,0.026062012
-0.19189453,-0.9636841,-0.0869751
-0.051513672,-0.9590454,-0.011291504
-0.00048828125,-0.9265747,0.026306152
-0.0234375,-0.99420166,0.030212402
0.0,-0.96466064,-0.013977051
-0.017333984,-0.98687744,0.06951904
-0.016601562,-1.0088501,-0.028625488
0.0036621094,-0.987854,0.066345215
-0.044189453,-0.9458618,0.05316162
-0.07348633,-0.975647,0.015075684
-0.013671875,-0.9907837,-0.042541504
-0.13134766,-0.925354,-0.13140869
-0.19262695,-0.9944458,-0.13873291
-0.20654297,-1.1223755,-0.023010254
-0.1862793,-0.9837036,-0.070129395
-0.18945312,-0.97613525,-0.07159424
-0.20239258,-0.9788208,-0.058898926
-0.20751953,-0.96099854,-0.055236816
-0.18603516,-0.99298096,0.027526855
0.0017089844,-0.9356079,0.08148193
-0.02758789,-0.94488525,-0.046691895
0.004638672,-1.0105591,0.028259277
0.049072266,-1.0012817,-0.024475098
0.0637207,-0.9741821,0.008972168
0.08081055,-0.9639282,0.07977295
0.052246094,-0.9517212,0.030456543
0.037353516,-0.9585571,0.030212402
0.0063476562,-1.0032349,0.08416748
-0.07714844,-0.83673096,0.11199951
-0.028076172,-1.1516724,-0.11920166
-0.22924805,-0.90875244,-0.07476807
-0.18041992,-1.0303345,-0.18511963
-0.22265625,-0.97979736,-0.05328369
-0.21362305,-0.9849243,-0.0491333
-0.22631836,-0.9636841,-0.05303955
-0.2397461,-0.9758911,-0.06842041
-0.23413086,-1.0081177,-0.058898926
-0.15600586,-0.9507446,0.066589355
-0.11816406,-1.1055298,-0.06085205
0.017333984,-0.88946533,0.07098389
0.016113281,-0.99420166,-0.016174316
0.012939453,-0.97076416,0.038513184
-0.016845703,-0.93585205,0.09246826
0.009765625,-0.96051025,0.13470459
0.020019531,-1.0081177,0.121276855
-0.04296875,-0.9788208,0.1918335
-0.06982422,-1.0254517,0.025817871
-0.19506836,-0.95977783,-0.026428223
-0.19384766,-1.0120239,-0.007385254
-0.22241211,-0.96417236,0.1161499
-0.21582031,-0.98321533,0.023376465
-0.24121094,-0.9680786,0.005065918
-0.24121094,-0.9668579,0.022644043
-0.23657227,-0.9212036,-0.0017700195
-0.20678711,-0.9866333,0.07098389
-0.09399414,-1.0010376,0.11077881
0.007080078,-1.0073853,-0.12261963
-0.01953125,-0.9939575,0.06512451
-0.008544922,-0.99542236,0.022644043
-0.0012207031,-0.96466064,0.11029053
-0.0036621094,-0.9714966,0.101501465
-0.057861328,-0.95977783,0.1359253
-0.14428711,-0.8779907,0.101745605
-0.017089844,-1.0391235,-0.070129395
-0.21240234,-0.9846802,0.101501465
-0.19677734,-1.0049438,-0.058166504
-0.22583008,-1.0388794,0.009460449
-0.21875,-0.9651489,0.007507324
-0.22387695,-0.927063,0.06732178
-0.23242188,-0.95880127,0.054626465
-0.25390625,-0.9717407,0.06976318
-0.24121094,-0.95025635,0.06439209
-0.21240234,-0.9692993,0.030212402
-0.14941406,-1.0227661,0.05291748
-0.09277344,-0.9065552,0.054626465
-0.021728516,-0.9585571,0.09075928
-0.037109375,-1.006897,0.085876465
-0.012451172,-0.9729614,0.06365967
0.0014648438,-0.9561157,0.11224365
-0.015380859,-0.9661255,0.10369873
-0.0126953125,-0.9224243,0.12957764
-0.037841797,-0.9277954,0.11639404
-0.17456055,-0.9854126,0.073913574
-0.11645508,-1.006897,-0.02911377
-0.1394043,-1.0076294,-0.050842285
-0.20263672,-1.0032349,-0.022277832
-0.22949219,-1.0049438,-0.017150879
-0.2019043,-0.9595337,-0.047180176
-0.23364258,-0.913147,-0.0010375977
-0.22705078,-0.9480591,0.038513184
-0.1508789,-0.9817505,0.08123779
-0.047607422,-0.9714966,-0.017150879
-0.033691406,-0.9680786,0.055358887
-0.024414062,-1.0198364,0.09246826
0.005859375,-0.97320557,-0.030090332
0.0031738281,-0.97442627,0.06121826
0.060791016,-0.9182739,0.046081543
-0.017089844,-0.9348755,0.16912842
-0.041992188,-0.9776001,-0.0015258789
-0.29492188,-0.9783325,-0.06500244
-0.09814453,-1.0151978,0.027770996
-0.1875,-1.0669556,-0.059143066
-0.2434082,-0.99713135,-0.003479004
-0.1965332,-0.96539307,-0.045959473
-0.22509766,-0.96051025,-0.010803223
-0.25927734,-0.97076416,0.023132324
-0.21020508,-0.9456177,-0.009338379
-0.20751953,-0.95391846,-0.024719238
-0.19360352,-1.0108032,0.0026245117
-0.078125,-0.9795532,0.035583496
-0.0078125,-0.9248657,-0.018859863
0.03930664,-0.96881104,0.0524292
0.0009765625,-0.99786377,0.07342529
0.037597656,-1.0015259,0.00970459
0.01953125,-0.9915161,0.06512451
0.0041503906,-0.9854126,0.13397217
-0.008056641,-0.9595337,0.09661865
-0.04736328,-0.94073486,0.09320068
-0.022705078,-1.0388794,-0.046691895
-0.21826172,-0.8674927,-0.065979004
-0.2319336,-1.0715942,-0.041809082
-0.26586914,-0.9973755,-0.016662598
-0.2553711,-0.9390259,-0.0178833
-0.25805664,-0.92144775,-0.046936035
-0.24780273,-0.973938,-0.005432129
-0.18139648,-0.89971924,0.035339355
-0.0034179688,-1.0344849,-0.22149658
-0.091552734,-1.081604,0.053649902
0.039794922,-0.97662354,-0.09576416
-0.0014648438,-0.9483032,-0.0154418945
0.0014648438,-0.9151001,0.03338623
-0.07299805,-0.9260864,-0.015197754
-0.18286133,-1.1177368,-0.018615723
-0.11230469,-0.9324341,-0.10845947
