accelX,accelY,accelZ
-0.30859375,0.11932373,0.99993896
-0.31054688,0.11810303,0.9957886
-0.31079102,0.12322998,0.9996948
-0.31054688,0.11932373,1.0031128
-0.30444336,0.12445068,0.99676514
-0.3022461,0.13079834,0.9989624
-0.29248047,0.12884521,0.98724365
-0.3005371,0.13494873,1.0038452
-0.30932617,0.13909912,1.0011597
-0.30566406,0.13568115,1.0055542
-0.30078125,0.12786865,1.0050659
-0.30395508,0.13446045,1.0028687
-0.29956055,0.13763428,0.99627686
-0.29370117,0.13787842,0.99334717
-0.30004883,0.13494873,1.0031128
-0.2944336,0.14691162,1.0094604
-0.29003906,0.14715576,1.012146
-0.29296875,0.15789795,0.9957886
-0.29345703,0.13812256,1.0004272
-0.2902832,0.14959717,0.9940796
-0.29589844,0.13690186,1.0018921
-0.30151367,0.13543701,0.99920654
-0.30810547,0.13787842,0.9957886
-0.3034668,0.13031006,0.9977417
-0.3112793,0.13519287,0.9977417
-0.30786133,0.12249756,1.0072632
-0.3161621,0.117614746,1.0033569
-0.30688477,0.1317749,0.99993896
-0.30737305,0.13226318,1.0006714
-0.29638672,0.12347412,0.99627686
-0.30908203,0.12347412,0.98895264
-0.30810547,0.121520996,0.9882202
-0.31298828,0.11810303,1.0001831
-0.30737305,0.11834717,1.0043335
-0.30541992,0.12860107,1.0036011
-0.3071289,0.1293335,1.0101929
-0.30639648,0.12689209,0.9989624
-0.3083496,0.1239624,1.0018921
-0.3005371,0.11468506,1.0072632
-0.2980957,0.12982178,0.99505615
-0.31323242,0.13275146,0.9996948
-0.31054688,0.11834717,1.0033569
-0.30932617,0.11517334,0.9989624
-0.30444336,0.1251831,1.0011597
-0.3005371,0.11956787,0.9984741
-0.30786133,0.13812256,1.0036011
-0.30541992,0.12640381,0.9977417
-0.30395508,0.14154053,1.0040894
-0.29125977,0.13641357,1.001648
-0.2993164,0.13616943,1.0055542
-0.2980957,0.14520264,1.0040894
-0.29345703,0.14056396,0.9977417
-0.29858398,0.13323975,0.993103
-0.30419922,0.13665771,0.99749756
-0.29492188,0.13543701,1.0014038
-0.29736328,0.13934326,1.0021362
-0.29589844,0.14959717,1.0079956
-0.30322266,0.1383667,1.0136108
-0.29492188,0.15081787,0.9984741
-0.29101562,0.14837646,1.0067749
-0.2944336,0.14398193,0.99554443
-0.3005371,0.1437378,0.9923706
-0.29956055,0.13641357,0.9984741
-0.3083496,0.1281128,0.99627686
-0.30639648,0.12445068,0.9945679
-0.3083496,0.116882324,0.9945679
-0.30981445,0.11517334,1.0143433
-0.30493164,0.12860107,0.99505615
-0.31298828,0.1293335,0.99749756
-0.3071289,0.121520996,1.0031128
-0.30639648,0.117614746,0.9935913
-0.3095703,0.11883545,0.9970093
-0.31030273,0.121520996,0.99993896
-0.31152344,0.12176514,1.0023804
-0.31420898,0.124694824,0.99554443
-0.30419922,0.117614746,0.9945679
-0.3088379,0.12347412,0.9940796
-0.31298828,0.11199951,1.020935
-0.31054688,0.120788574,1.0031128
-0.30664062,0.12542725,0.9960327
-0.30541992,0.12054443,1.0023804
-0.3017578,0.124938965,0.9923706
-0.3017578,0.11810303,0.99017334
-0.3083496,0.12786865,0.99505615
-0.3095703,0.1227417,1.0006714
-0.30493164,0.12567139,1.0009155
-0.3022461,0.11590576,0.99334717
-0.3095703,0.12298584,1.007019
-0.30615234,0.12200928,1.0050659
-0.31201172,0.124938965,0.9996948
-0.30395508,0.13519287,1.0006714
-0.29296875,0.13519287,1.0011597
-0.29516602,0.14154053,1.0067749
-0.29125977,0.14251709,1.0009155
-0.30029297,0.13812256,0.9994507
-0.3017578,0.13812256,1.0004272
-0.28710938,0.13861084,1.0031128
-0.29833984,0.14788818,0.99798584
-0.2998047,0.1461792,1.0009155
-0.29736328,0.13641357,1.0128784
-0.2919922,0.15716553,0.99627686
-0.28808594,0.14544678,1.0060425
-0.28637695,0.14642334,0.9989624
-0.2890625,0.14788818,1.0038452
-0.2939453,0.14910889,0.99261475
-0.29052734,0.13861084,1.0089722
-0.28979492,0.14251709,0.99212646
-0.29174805,0.14398193,1.0021362
-0.2998047,0.1395874,1.0089722
-0.29907227,0.13153076,1.00531
-0.29907227,0.14764404,1.0040894
-0.3005371,0.12591553,0.99798584
-0.30273438,0.12445068,0.99139404
-0.30444336,0.13568115,0.99993896
-0.3088379,0.11834717,1.0026245
-0.30639648,0.1305542,1.0023804
-0.3083496,0.121032715,1.0018921
-0.30664062,0.124938965,1.0004272
-0.30297852,0.11273193,1.0023804
-0.31152344,0.12640381,1.0026245
-0.30444336,0.12420654,0.99993896
-0.3046875,0.12689209,1.0040894
-0.30322266,0.1305542,0.9989624
-0.30297852,0.12713623,0.99798584
-0.3071289,0.12738037,1.0004272
-0.31103516,0.11810303,1.0055542
-0.30395508,0.12420654,1.0065308
-0.30859375,0.12664795,1.0023804
-0.3083496,0.13397217,0.9960327
-0.2956543,0.12786865,0.994812
-0.31323242,0.12908936,1.0075073
-0.30639648,0.124694824,1.0050659
-0.30371094,0.13250732,1.0045776
-0.2998047,0.13104248,1.0067749
-0.30371094,0.13543701,1.001648
-0.2998047,0.13934326,1.0026245
-0.29858398,0.13348389,0.9972534
-0.29516602,0.13275146,0.9911499
-0.30371094,0.13690186,1.0004272
-0.30444336,0.13861084,1.0031128
-0.30200195,0.13348389,1.0040894
-0.28857422,0.15447998,0.99871826
-0.28857422,0.14471436,1.0011597
-0.28637695,0.14569092,0.9906616
-0.28881836,0.14691162,1.0040894
-0.2956543,0.1486206,0.9862671
-0.296875,0.14984131,0.9970093
-0.2915039,0.14691162,1.0036011
-0.29052734,0.15301514,1.0038452
-0.29663086,0.14764404,1.0004272
-0.2993164,0.1461792,1.0133667
-0.28857422,0.16595459,0.9972534
-0.2919922,0.15057373,1.013855
-0.29589844,0.1449585,0.9816284
-0.2939453,0.14422607,0.9972534
-0.29541016,0.13909912,0.9869995
-0.3083496,0.14178467,1.0009155
-0.29833984,0.13543701,0.9953003
-0.29833984,0.13519287,0.99871826
-0.2932129,0.13641357,0.97406006
-0.31591797,0.13641357,0.99871826
-0.3095703,0.13226318,1.0021362
-0.30078125,0.124694824,0.99505615
-0.30444336,0.13861084,1.0082397
-0.30541992,0.13372803,1.0072632
-0.30737305,0.12835693,1.0057983
-0.31103516,0.13031006,0.9953003
-0.3022461,0.12591553,1.0006714
-0.31347656,0.12713623,1.0001831
-0.3088379,0.11956787,1.0055542
-0.30981445,0.12615967,0.9984741
-0.3010254,0.12615967,0.99554443
-0.30200195,0.124938965,0.9977417
-0.30639648,0.13226318,0.9972534
-0.30029297,0.1251831,0.99505615
-0.30859375,0.12908936,0.9945679
-0.30029297,0.12322998,1.0018921
-0.31054688,0.121520996,1.0065308
-0.30200195,0.12957764,0.99212646
-0.30200195,0.13397217,0.99871826
-0.2902832,0.13226318,0.9904175
-0.29785156,0.14813232,1.0072632
-0.2919922,0.13983154,1.0060425
-0.29296875,0.13519287,1.0014038
-0.29541016,0.1486206,1.0055542
-0.28857422,0.152771,1.0036011
-0.29467773,0.1437378,0.99823
-0.2932129,0.14129639,1.0009155
-0.29003906,0.15301514,1.0040894
-0.29003906,0.15179443,0.996521
-0.27734375,0.14056396,0.9813843
-0.29077148,0.15057373,1.0014038
-0.2849121,0.15008545,1.0006714
-0.28710938,0.1408081,0.99993896
-0.28686523,0.15447998,1.015564
-0.2956543,0.14447021,1.0009155
-0.29711914,0.14056396,0.994812
-0.30200195,0.14178467,1.0028687
-0.30249023,0.1317749,1.0001831
-0.31420898,0.14422607,1.0182495
-0.3046875,0.13739014,0.9953003
-0.30859375,0.13104248,0.9977417
-0.30566406,0.11932373,1.0031128
-0.30639648,0.12884521,1.0001831
-0.31298828,0.12371826,1.0060425
-0.2993164,0.13006592,1.0031128
-0.30737305,0.12762451,0.99627686
-0.30908203,0.12615967,1.0038452
-0.30517578,0.12982178,0.9945679
-0.30517578,0.1305542,0.9970093
-0.29248047,0.12030029,0.9804077
-0.31347656,0.12884521,1.0075073
-0.30615234,0.11956787,1.0031128
-0.30541992,0.117614746,0.9957886
-0.30517578,0.12225342,1.0033569
-0.30444336,0.124694824,1.0072632
-0.30737305,0.1305542,1.0038452
-0.29956055,0.12615967,1.0009155
-0.29711914,0.12982178,1.001648
-0.3076172,0.13543701,0.99823
-0.30078125,0.14276123,1.012146
-0.30297852,0.14227295,1.0077515
-0.29077148,0.14984131,0.994812
-0.28833008,0.1473999,1.0048218
-0.29418945,0.14788818,0.9904175
-0.2932129,0.14764404,1.0067749
-0.2944336,0.14520264,1.001648
-0.29492188,0.14959717,1.0006714
-0.29003906,0.14178467,1.001648
-0.2939453,0.14984131,1.0040894
-0.30004883,0.15716553,1.0072632
-0.2939453,0.14935303,1.0165405
-0.28466797,0.1539917,1.0023804
-0.2939453,0.1486206,0.99823
-0.28833008,0.15570068,0.996521
-0.29345703,0.14398193,0.9957886
-0.30249023,0.13421631,1.0001831
-0.30371094,0.13885498,0.99627686
-0.3017578,0.13348389,0.99993896
-0.3059082,0.1251831,0.9935913
-0.31030273,0.12786865,1.0040894
-0.30859375,0.12884521,1.0055542
-0.30444336,0.13323975,0.9989624
-0.29785156,0.12420654,0.9945679
-0.30517578,0.12445068,0.9906616
-0.3083496,0.12908936,1.0018921
-0.30737305,0.13201904,0.9923706
-0.30493164,0.124694824,1.0011597
-0.30737305,0.12249756,1.0065308
-0.29907227,0.13128662,0.9972534
-0.3083496,0.1293335,0.994812
-0.29833984,0.11810303,0.99676514
-0.31713867,0.12835693,1.0055542
-0.30639648,0.12176514,1.0033569
-0.2998047,0.124694824,0.9994507
-0.30419922,0.13128662,1.0065308
-0.3046875,0.12762451,1.0167847
-0.30029297,0.1317749,0.9970093
-0.3083496,0.13226318,1.0004272
-0.3010254,0.13323975,1.0050659
-0.2824707,0.14886475,0.9977417
-0.29785156,0.14129639,0.996521
-0.29833984,0.1317749,0.982605
-0.29882812,0.1486206,1.0072632
-0.29101562,0.15301514,1.0004272
-0.29223633,0.14300537,1.0057983
-0.28686523,0.15423584,1.0009155
-0.29003906,0.15179443,1.0014038
-0.28955078,0.15081787,0.99798584
-0.28930664,0.14227295,0.996521
-0.29370117,0.15350342,1.0011597
-0.28393555,0.1486206,0.9984741
-0.28466797,0.14569092,0.9862671
-0.27954102,0.15716553,0.99432373
-0.28710938,0.15032959,1.0050659
-0.29345703,0.15008545,1.001648
-0.3005371,0.1473999,1.0106812
-0.3010254,0.13885498,1.0023804
-0.3100586,0.1359253,0.99676514
-0.30541992,0.13201904,0.9970093
-0.30444336,0.13787842,1.0055542
-0.31567383,0.11932373,1.0021362
-0.3100586,0.12738037,0.99798584
-0.30419922,0.13641357,0.9960327
-0.30151367,0.12860107,1.0009155
-0.30273438,0.13104248,0.9838257
-0.30859375,0.12835693,0.99383545
-0.31713867,0.12567139,0.98480225
-0.30810547,0.12738037,1.0023804
-0.30615234,0.11834717,0.9996948
-0.30566406,0.12689209,1.0045776
-0.3046875,0.1161499,1.0001831
-0.31176758,0.121032715,0.99920654
-0.30151367,0.13031006,0.9940796
-0.30395508,0.12738037,1.0014038
-0.30688477,0.1317749,0.9940796
-0.30297852,0.124694824,0.9945679
-0.30541992,0.12347412,0.9972534
-0.30419922,0.1293335,1.0026245
-0.30126953,0.1383667,1.0060425
-0.30200195,0.1395874,1.0038452
-0.2998047,0.14471436,1.0067749
-0.28979492,0.14007568,1.0011597
-0.2939453,0.14886475,0.9972534
-0.29516602,0.14105225,1.0033569
-0.29248047,0.14178467,1.0043335
-0.2932129,0.14178467,1.0050659
-0.29101562,0.14886475,0.9996948
-0.2861328,0.14691162,0.99676514
-0.29223633,0.14105225,0.9894409
-0.29248047,0.14984131,1.0084839
-0.29638672,0.15301514,1.008728
-0.3005371,0.14715576,0.9996948
-0.29248047,0.15740967,1.0021362
-0.29223633,0.15301514,1.0119019
-0.29101562,0.15106201,0.99798584
-0.2878418,0.14691162,1.0028687
-0.2998047,0.13739014,0.98553467
-0.30078125,0.14251709,0.99920654
-0.30151367,0.13690186,1.0055542
-0.29858398,0.15301514,1.0189819
-0.3046875,0.1383667,1.0040894
-0.30493164,0.14007568,0.9996948
-0.29760742,0.13641357,1.0111694
-0.30297852,0.14276123,1.00531
-0.30541992,0.13079834,1.0023804
-0.3034668,0.12615967,0.99993896
-0.31689453,0.13543701,0.9977417
-0.30664062,0.12835693,0.9984741
-0.3071289,0.12420654,0.99798584
-0.3088379,0.1293335,0.9960327
-0.28930664,0.11859131,0.98431396
-0.31201172,0.12762451,1.0028687
-0.30419922,0.1293335,1.0040894
-0.30029297,0.1239624,0.99212646
-0.29956055,0.1251831,0.99993896
-0.2993164,0.12030029,0.9994507
-0.30664062,0.13568115,1.0057983
-0.30908203,0.12225342,0.99261475
-0.30322266,0.14007568,0.9996948
-0.30297852,0.13787842,1.0001831
-0.28881836,0.1383667,0.99505615
-0.2890625,0.1329956,0.9828491
-0.2927246,0.14642334,1.0072632
-0.30419922,0.15081787,0.9957886
-0.2902832,0.13812256,1.0004272
-0.29516602,0.15203857,1.0045776
-0.30029297,0.14788818,1.0062866
-0.2980957,0.1486206,0.99505615
-0.2927246,0.15130615,0.9960327
-0.29345703,0.14935303,0.99798584
-0.30810547,0.14666748,0.98431396
-0.30517578,0.14715576,0.98431396
-0.3095703,0.14202881,1.0021362
-0.31176758,0.15692139,1.0114136
-0.27001953,0.13128662,0.98431396
-0.28857422,0.121032715,1.0067749
-0.31225586,0.1281128,0.994812
-0.3100586,0.13372803,0.9940796
-0.30322266,0.13153076,1.0060425
-0.2993164,0.13153076,1.010437
-0.31030273,0.1329956,1.0036011
-0.3059082,0.1383667,0.9984741
-0.30126953,0.12640381,1.0026245
-0.31225586,0.14105225,1.0026245
-0.30151367,0.13397217,1.0033569
-0.30786133,0.13885498,1.00531
-0.3088379,0.12860107,1.0062866
-0.30297852,0.12640381,1.0065308
-0.30444336,0.12567139,0.993103
-0.3083496,0.124938965,0.99798584
-0.30004883,0.12567139,1.0028687
-0.30737305,0.13250732,0.99432373
-0.30566406,0.1359253,1.0089722
-0.30664062,0.13006592,0.99871826
-0.30078125,0.14007568,0.99676514
-0.30322266,0.124694824,1.0094604
-0.29882812,0.13934326,1.0018921
-0.30786133,0.13470459,1.0006714
-0.30126953,0.13519287,0.9984741
